sentinal	temp	gx	gy	gz	ax	ay	az	footer
-17451	152	41	609	3632	-15824	2000	-17451	152	41	609	3632	-15824	2000	-17451	152	41	609	3632	-15824	2000	-17451	152	41	609	3632	-15824	2000	-17451	152	41	609	3632	-15824	2000	-17451	152	41	609	3632	-15824	2000
-139	-152	454	7328	-6608	12944	0	-139	-152	454	7328	-6608	12944	0	3596	0	3596	0	3596	0	0	3596	0	3596	0	3596	0	0	3596	0	3596	0	3596	0	0	0	0	0	0	0	0	0
-15543	1	178	-55	8448	1600	16672	-15543	1	178	-55	8448	1600	16672	-15543	1	178	-55	8448	1600	16672	-15543	1	178	-55	8448	1600	16672	-15543	1	178	-55	8448	1600	16672	-15543	1	178	-55	8448	1600	16672
-15501	-203	139	73	3760	-15744	2064	-15501	-203	139	73	3760	-15744	2064	-15501	-203	139	73	3760	-15744	2064	-15501	-203	139	73	3760	-15744	2064	-15501	-203	139	73	3760	-15744	2064	-15501	-203	139	73	3760	-15744	2064
-15508	-207	133	74	3776	-15712	2064	-15508	-207	133	74	3776	-15712	2064	-15508	-207	133	74	3776	-15712	2064	-15508	-207	133	74	3776	-15712	2064	-15508	-207	133	74	3776	-15712	2064	-15508	-207	133	74	3776	-15712	2064
-15482	-207	137	72	3728	-15824	2080	-15482	-207	137	72	3728	-15824	2080	-15482	-207	137	72	3728	-15824	2080	-15482	-207	137	72	3728	-15824	2080	-15482	-207	137	72	3728	-15824	2080	-15482	-207	137	72	3728	-15824	2080
-15701	-138	-155	453	7376	-6480	13040	-15701	-138	-155	453	7376	-6480	13040	-15701	-138	-155	453	7376	-6480	13040	-15701	-138	-155	453	7376	-6480	13040	-15701	-138	-155	453	7376	-6480	13040	-15701	-138	-155	453	7376	-6480	13040
-15700	-144	-148	455	7392	-6528	12944	-15700	-144	-148	455	7392	-6528	12944	-15700	-144	-148	455	7392	-6528	12944	-15700	-144	-148	455	7392	-6528	12944	-15700	-144	-148	455	7392	-6528	12944	-15700	-144	-148	455	7392	-6528	12944
-15701	-145	-154	459	7488	-6592	13056	-15701	-145	-154	459	7488	-6592	13056	-15701	-145	-154	459	7488	-6592	13056	-15701	-145	-154	459	7488	-6592	13056	-15701	-145	-154	459	7488	-6592	13056	-15701	-145	-154	459	7488	-6592	13056
-15491	-205	138	79	3712	-15776	2144	-15491	-205	138	79	3712	-15776	2144	-15491	-205	138	79	3712	-15776	2144	-15491	-205	138	79	3712	-15776	2144	-15491	-205	138	79	3712	-15776	2144	-15491	-205	138	79	3712	-15776	2144
-15494	-205	136	73	3680	-15840	1952	-15494	-205	136	73	3680	-15840	1952	-15494	-205	136	73	3680	-15840	1952	-15494	-205	136	73	3680	-15840	1952	-15494	-205	136	73	3680	-15840	1952	-15494	-205	136	73	3680	-15840	1952
-15702	-145	-158	458	7472	-6608	12928	-15702	-145	-158	458	7472	-6608	12928	-15702	-145	-158	458	7472	-6608	12928	-15702	-145	-158	458	7472	-6608	12928	-15702	-145	-158	458	7472	-6608	12928	-15702	-145	-158	458	7472	-6608	12928
-206	131	70	3632	-15824	1984	0	-206	131	70	3632	-15824	1984	0	3718	0	3718	0	3718	0	0	3718	0	3718	0	3718	0	0	3718	0	3718	0	3718	0	0	0	0	0	0	0	0	0
-15530	9	176	-54	8400	1488	16720	-15530	9	176	-54	8400	1488	16720	-15530	9	176	-54	8400	1488	16720	-15530	9	176	-54	8400	1488	16720	-15530	9	176	-54	8400	1488	16720	-15530	9	176	-54	8400	1488	16720
-15702	-137	-146	449	7360	-6544	12944	-15702	-137	-146	449	7360	-6544	12944	-15702	-137	-146	449	7360	-6544	12944	-15702	-137	-146	449	7360	-6544	12944	-15702	-137	-146	449	7360	-6544	12944	-15702	-137	-146	449	7360	-6544	12944
-15497	-202	138	67	3728	-15760	2112	-15497	-202	138	67	3728	-15760	2112	-15497	-202	138	67	3728	-15760	2112	-15497	-202	138	67	3728	-15760	2112	-15497	-202	138	67	3728	-15760	2112	-15497	-202	138	67	3728	-15760	2112
-15703	-147	-153	461	7424	-6592	13040	-15703	-147	-153	461	7424	-6592	13040	-15703	-147	-153	461	7424	-6592	13040	-15703	-147	-153	461	7424	-6592	13040	-15703	-147	-153	461	7424	-6592	13040	-15703	-147	-153	461	7424	-6592	13040
-15713	-139	-159	456	7360	-6592	12976	-15713	-139	-159	456	7360	-6592	12976	-15713	-139	-159	456	7360	-6592	12976	-15713	-139	-159	456	7360	-6592	12976	-15713	-139	-159	456	7360	-6592	12976	-15713	-139	-159	456	7360	-6592	12976
-15500	-203	134	74	3712	-15840	2096	-15500	-203	134	74	3712	-15840	2096	-15500	-203	134	74	3712	-15840	2096	-15500	-203	134	74	3712	-15840	2096	-15500	-203	134	74	3712	-15840	2096	-15500	-203	134	74	3712	-15840	2096
-15699	-142	-151	454	7504	-6512	12976	-15699	-142	-151	454	7504	-6512	12976	-15699	-142	-151	454	7504	-6512	12976	-15699	-142	-151	454	7504	-6512	12976	-15699	-142	-151	454	7504	-6512	12976	-15699	-142	-151	454	7504	-6512	12976
-15495	-208	136	74	3744	-15824	2048	-15495	-208	136	74	3744	-15824	2048	-15495	-208	136	74	3744	-15824	2048	-15495	-208	136	74	3744	-15824	2048	-15495	-208	136	74	3744	-15824	2048	-15495	-208	136	74	3744	-15824	2048
-15704	-141	-155	455	7488	-6608	13072	-15704	-141	-155	455	7488	-6608	13072	-15704	-141	-155	455	7488	-6608	13072	-15704	-141	-155	455	7488	-6608	13072	-15704	-141	-155	455	7488	-6608	13072	-15704	-141	-155	455	7488	-6608	13072
-15698	-135	-148	453	7392	-6528	13088	-15698	-135	-148	453	7392	-6528	13088	-15698	-135	-148	453	7392	-6528	13088	-15698	-135	-148	453	7392	-6528	13088	-15698	-135	-148	453	7392	-6528	13088	-15698	-135	-148	453	7392	-6528	13088
6	176	-51	8416	1680	16688	0	6	176	-51	8416	1680	16688	0	3594	0	3594	0	3594	0	0	3594	0	3594	0	3594	0	0	3594	0	3594	0	3594	0	0	0	0	0	0	0	0	0
-15650	281	191	163	-1616	-12640	10544	-15650	281	191	163	-1616	-12640	10544	-15650	281	191	163	-1616	-12640	10544	-15650	281	191	163	-1616	-12640	10544	-15650	281	191	163	-1616	-12640	10544	-15650	281	191	163	-1616	-12640	10544
-15524	7	171	-52	8400	1648	16672	-15524	7	171	-52	8400	1648	16672	-15524	7	171	-52	8400	1648	16672	-15524	7	171	-52	8400	1648	16672	-15524	7	171	-52	8400	1648	16672	-15524	7	171	-52	8400	1648	16672
-15519	4	175	-53	8400	1536	16624	-15519	4	175	-53	8400	1536	16624	-15519	4	175	-53	8400	1536	16624	-15519	4	175	-53	8400	1536	16624	-15519	4	175	-53	8400	1536	16624	-15519	4	175	-53	8400	1536	16624
-15525	4	174	-53	8416	1440	16496	-15525	4	174	-53	8416	1440	16496	-15525	4	174	-53	8416	1440	16496	-15525	4	174	-53	8416	1440	16496	-15525	4	174	-53	8416	1440	16496	-15525	4	174	-53	8416	1440	16496
-15528	7	176	-55	8432	1600	16656	-15528	7	176	-55	8432	1600	16656	-15528	7	176	-55	8432	1600	16656	-15528	7	176	-55	8432	1600	16656	-15528	7	176	-55	8432	1600	16656	-15528	7	176	-55	8432	1600	16656
-15529	2	174	-55	8432	1536	16624	-15529	2	174	-55	8432	1536	16624	-15529	2	174	-55	8432	1536	16624	-15529	2	174	-55	8432	1536	16624	-15529	2	174	-55	8432	1536	16624	-15529	2	174	-55	8432	1536	16624
-15533	5	172	-49	8608	1648	16656	-15533	5	172	-49	8608	1648	16656	-15533	5	172	-49	8608	1648	16656	-15533	5	172	-49	8608	1648	16656	-15533	5	172	-49	8608	1648	16656	-15533	5	172	-49	8608	1648	16656
-15515	-204	136	71	3744	-15840	2128	-15525	3	175	-52	8304	1616	16656	-15525	3	175	-52	8304	1616	16656	-15525	3	175	-52	8304	1616	16656	-15525	3	175	-52	8304	1616	16656	-15525	3	175	-52	8304	1616	16656
-15531	4	178	-56	8416	1616	16640	-15531	4	178	-56	8416	1616	16640	-15531	4	178	-56	8416	1616	16640	-15531	4	178	-56	8416	1616	16640	-15531	4	178	-56	8416	1616	16640	-15531	4	178	-56	8416	1616	16640
-15505	-203	133	75	3760	-15840	2048	-15505	-203	133	75	3760	-15840	2048	-15505	-203	133	75	3760	-15840	2048	-15505	-203	133	75	3760	-15840	2048	-15505	-203	133	75	3760	-15840	2048	-15505	-203	133	75	3760	-15840	2048
6	175	-49	8560	1616	16640	0	6	175	-49	8560	1616	16640	0	3716	0	3716	0	3716	0	0	3716	0	3716	0	3716	0	0	3716	0	3716	0	3716	0	0	0	0	0	0	0	0	0
-15646	278	191	167	-1616	-12640	10384	-15646	278	191	167	-1616	-12640	10384	-15646	278	191	167	-1616	-12640	10384	-15646	278	191	167	-1616	-12640	10384	-15646	278	191	167	-1616	-12640	10384	-15646	278	191	167	-1616	-12640	10384
-15530	4	177	-53	8416	1520	16656	-15530	4	177	-53	8416	1520	16656	-15530	4	177	-53	8416	1520	16656	-15530	4	177	-53	8416	1520	16656	-15530	4	177	-53	8416	1520	16656	-15530	4	177	-53	8416	1520	16656
-15526	3	175	-54	8448	1616	16688	-15526	3	175	-54	8448	1616	16688	-15526	3	175	-54	8448	1616	16688	-15526	3	175	-54	8448	1616	16688	-15526	3	175	-54	8448	1616	16688	-15526	3	175	-54	8448	1616	16688
-15497	-206	138	68	3760	-15776	2144	-15533	1	175	-54	8512	1568	16704	-15533	1	175	-54	8512	1568	16704	-15533	1	175	-54	8512	1568	16704	-15533	1	175	-54	8512	1568	16704	-15533	1	175	-54	8512	1568	16704
-15533	3	172	-54	8448	1600	16640	-15533	3	172	-54	8448	1600	16640	-15533	3	172	-54	8448	1600	16640	-15533	3	172	-54	8448	1600	16640	-15533	3	172	-54	8448	1600	16640	-15533	3	172	-54	8448	1600	16640
-15527	3	172	-59	8480	1632	16672	-15527	3	172	-59	8480	1632	16672	-15527	3	172	-59	8480	1632	16672	-15527	3	172	-59	8480	1632	16672	-15527	3	172	-59	8480	1632	16672	-15527	3	172	-59	8480	1632	16672
-15530	0	176	-54	8416	1520	16656	-15530	0	176	-54	8416	1520	16656	-15530	0	176	-54	8416	1520	16656	-15530	0	176	-54	8416	1520	16656	-15530	0	176	-54	8416	1520	16656	-15530	0	176	-54	8416	1520	16656
-15530	7	177	-53	8400	1648	16704	-15530	7	177	-53	8400	1648	16704	-15530	7	177	-53	8400	1648	16704	-15530	7	177	-53	8400	1648	16704	-15530	7	177	-53	8400	1648	16704	-15530	7	177	-53	8400	1648	16704
-15521	-206	134	70	3616	-15840	2128	-15521	-206	134	70	3616	-15840	2128	-15530	2	176	-54	8512	1616	16736	-15530	2	176	-54	8512	1616	16736	-15530	2	176	-54	8512	1616	16736	-15530	2	176	-54	8512	1616	16736
-15500	-206	135	74	3744	-15760	1984	-15500	-206	135	74	3744	-15760	1984	-15500	-206	135	74	3744	-15760	1984	-15500	-206	135	74	3744	-15760	1984	-15500	-206	135	74	3744	-15760	1984	-15500	-206	135	74	3744	-15760	1984
6	173	-55	8448	1568	16592	0	6	173	-55	8448	1568	16592	0	3590	0	3590	0	3590	0	0	3590	0	3590	0	3590	0	0	3590	0	3590	0	3590	0	0	0	0	0	0	0	0	0
-15643	278	188	164	-1584	-12608	10480	-15643	278	188	164	-1584	-12608	10480	-15643	278	188	164	-1584	-12608	10480	-15643	278	188	164	-1584	-12608	10480	-15643	278	188	164	-1584	-12608	10480	-15643	278	188	164	-1584	-12608	10480
-15525	6	178	-57	8480	1600	16608	-15525	6	178	-57	8480	1600	16608	-15525	6	178	-57	8480	1600	16608	-15525	6	178	-57	8480	1600	16608	-15525	6	178	-57	8480	1600	16608	-15525	6	178	-57	8480	1600	16608
-15529	2	173	-52	8512	1552	16832	-15529	2	173	-52	8512	1552	16832	-15529	2	173	-52	8512	1552	16832	-15529	2	173	-52	8512	1552	16832	-15529	2	173	-52	8512	1552	16832	-15529	2	173	-52	8512	1552	16832
-15517	4	177	-53	8400	1536	16688	-15517	4	177	-53	8400	1536	16688	-15517	4	177	-53	8400	1536	16688	-15517	4	177	-53	8400	1536	16688	-15517	4	177	-53	8400	1536	16688	-15517	4	177	-53	8400	1536	16688
