sentinal	temp	gx	gy	gz	ax	ay	az	footer
-15231	1431	-3034	2286	-2592	208	16720	-16040	-894	2409	2275	-5264	-3936	15136	-16509	3820	-2287	-1567	-256	-1248	-16192	-24400	1589	-4658	5841	-1840	-4160	15984
-15228	1198	-2754	2263	-2656	288	16464	-16059	-647	2391	2037	-5216	-4048	15056	-16532	-2807	1972	2289	-224	-1328	-16128	-16279	-3167	2325	-2117	-1888	-4192	15856
-15240	630	-2367	2264	-2528	224	16528	-16055	-271	1904	1820	-5248	-3952	15168	-16516	-2497	2011	1964	-256	-1232	-16208	-16278	-2555	2300	-1664	-1760	-4224	15952
-15216	-157	94	2263	-2512	176	16560	-16074	177	289	1682	-5168	-4000	15280	-16544	-1443	1675	1718	-272	-1248	-16176	-16283	-1270	1887	-1336	-1792	-4192	15824
-15227	-136	89	2271	-2496	320	16640	-16042	167	319	1550	-5136	-3984	15184	-16538	-171	130	1499	-224	-1344	-16144	-16282	349	195	-1077	-1840	-4160	16016
-15232	-136	87	2268	-2528	192	16640	-16061	166	317	1477	-5216	-3968	15152	-16530	-225	141	1332	-288	-1392	-16032	-16275	320	213	-879	-1888	-4128	15888
-15229	-128	90	2255	-2592	272	16560	-16061	165	305	1405	-5200	-4032	15120	-16529	-201	141	1195	-272	-1264	-16208	-16297	322	212	-741	-1808	-4176	15936
-15218	-134	98	2271	-2544	144	16640	-16088	168	321	1338	-5264	-4048	15040	-16533	-216	132	1096	-272	-1248	-16160	-16299	324	208	-620	-1792	-4192	15792
-15229	-132	93	499	-2576	224	16528	-16090	167	316	537	-5168	-3936	15184	-16518	-207	135	1013	-288	-1344	-16240	-16283	328	216	-520	-1824	-4176	15888
-15237	-138	91	-796	-2528	256	16640	-16056	167	315	638	-5136	-3968	15024	-16534	-210	134	651	-208	-1344	-16176	-16287	317	215	-550	-1872	-4144	15920
-15226	-136	91	1286	-2576	240	16640	-16078	173	322	2413	-5168	-4064	15312	-16533	-205	142	1146	-288	-1296	-16112	-16297	323	207	-2432	-1888	-4128	16016
-15222	-132	87	1121	-2592	224	16560	-16067	168	326	2218	-5200	-3984	15152	-16520	-213	137	2467	-272	-1296	-16208	-16316	323	210	-3486	-1808	-4080	15872
-15234	-131	93	325	-2640	224	16656	-16073	168	320	540	-5200	-4016	15120	-16540	-215	138	2468	-160	-1312	-16080	-16299	318	211	-3259	-1936	-4208	15904
-15226	-135	87	119	-2528	224	16656	-16053	168	320	107	-5280	-4032	15184	-16547	-209	142	1187	-208	-1296	-16208	-16306	319	203	-1976	-1840	-4192	15872
-15223	-135	91	116	-2544	288	16480	-16073	168	322	106	-5184	-3952	15232	-16554	-208	139	48	-208	-1264	-16096	-16293	323	212	151	-1872	-4192	15984
-15217	-127	85	122	-2576	208	16672	-16062	166	310	109	-5200	-4048	15152	-16568	-209	146	70	-288	-1344	-16048	-16287	317	223	117	-1888	-4192	15888
-15217	-139	80	118	-2624	208	16640	-16066	176	317	112	-5184	-3968	15040	-16527	-210	136	59	-288	-1296	-16096	-16284	320	211	118	-1872	-4224	15792
-15217	-136	98	119	-2576	160	16656	-16079	167	317	109	-5216	-3936	15120	-16524	-212	132	64	-112	-1312	-16208	-16286	320	207	116	-1840	-4160	15888
-15207	-129	91	118	-2592	272	16672	-16077	168	317	106	-5248	-3936	15088	-16557	-212	134	66	-128	-1264	-16208	-16294	318	207	123	-1840	-4304	15984
-15216	-138	99	124	-2592	256	16560	-16047	165	320	115	-5264	-3936	15184	-16545	-209	140	72	-272	-1360	-16144	-16292	329	212	118	-1840	-4176	15824
-15223	-130	89	127	-2592	256	16640	-16059	173	321	117	-5152	-3952	15040	-16548	-214	134	70	-240	-1248	-16288	-16290	324	215	122	-1872	-4128	15936
-15221	-135	88	114	-2608	272	16720	-16066	169	308	112	-5200	-3952	15152	-16557	-206	132	70	-208	-1344	-16208	-16301	318	210	113	-1840	-4160	16016
-15226	-134	94	128	-2528	256	16576	-16065	168	321	109	-5248	-3968	15088	-16529	-210	132	66	-208	-1312	-16240	-16287	309	216	121	-1840	-4192	15824
-15218	-131	92	122	-2576	272	16592	-16060	173	327	110	-5216	-3936	15088	-16536	-217	131	71	-304	-1280	-16208	-16294	315	212	118	-1824	-4080	15952
-15215	-132	93	126	-2576	208	16720	-16060	174	312	115	-5184	-4048	15120	-16551	-213	141	65	-208	-1264	-16224	-16294	314	209	119	-2000	-4224	15920
-15218	-137	89	115	-2608	256	16576	-16094	165	313	124	-5136	-3920	15216	-16539	-216	140	70	-272	-1248	-16128	-16285	324	212	118	-1888	-4272	15808
-15228	-131	90	132	-2544	304	16736	-16069	167	307	111	-5168	-4048	15184	-16544	-220	141	63	-272	-1344	-16288	-16290	327	214	116	-1824	-4112	15840
-15247	-121	93	118	-2496	208	16592	-16062	164	324	113	-5136	-3968	15200	-16539	-213	136	69	-224	-1216	-16080	-16287	325	218	120	-1904	-4128	15952
-15217	-131	91	118	-2576	320	16640	-16066	170	320	108	-5136	-3920	15024	-16557	-203	147	68	-208	-1232	-16224	-16300	324	214	118	-1776	-4160	15808
-15234	-135	91	122	-2528	256	16688	-16048	167	319	113	-5248	-3936	15152	-16552	-209	137	77	-192	-1296	-16160	-16292	323	209	112	-1792	-4144	16000
-15224	-131	87	125	-2640	176	16576	-16056	179	318	116	-5184	-3984	15024	-16545	-212	138	67	-288	-1280	-16240	-16289	311	216	114	-1824	-4192	15936
-15230	-129	92	115	-2624	96	16640	-16069	165	312	119	-5136	-4032	15024	-16548	-213	139	61	-352	-1264	-16112	-16309	311	214	118	-1936	-4144	16064
-15229	-128	94	119	-2576	256	16640	-16076	175	310	112	-5216	-4048	15120	-16531	-210	136	76	-304	-1360	-16240	-16275	318	216	122	-1840	-4144	15952
-15226	-127	88	107	-2592	144	16608	-16050	166	310	123	-5120	-4032	15136	-16544	-216	143	65	-144	-1296	-16224	-16293	319	211	124	-1888	-4112	15808
-15230	-134	89	116	-2608	336	16640	-16067	167	313	119	-5104	-3936	15104	-16547	-202	140	66	-208	-1200	-16192	-16265	325	209	119	-1904	-4176	15904
-15244	-136	99	121	-2592	240	16528	-16071	167	314	113	-5152	-3920	15056	-16531	-203	138	67	-224	-1248	-16240	-16288	320	212	119	-1808	-4192	15984
-15221	-135	94	110	-2592	240	16640	-16059	169	313	114	-5152	-4000	15104	-16517	-211	139	67	-240	-1296	-16016	-16288	325	213	116	-1824	-4256	15984
-15206	-129	93	123	-2464	208	16576	-16069	163	312	114	-5168	-4000	15168	-16512	-206	130	70	-336	-1328	-16128	-16276	330	215	109	-1744	-4192	15904
-15232	-128	87	123	-2544	240	16704	-16071	173	306	114	-5232	-3936	14944	-16525	-209	141	62	-176	-1280	-16160	-16296	318	210	116	-1744	-4240	15744
-15235	-130	80	120	-2592	272	16656	-16068	168	306	103	-5200	-3984	15168	-16527	-205	130	67	-240	-1248	-16304	-16283	328	206	114	-1808	-4128	15936
-15245	-130	98	120	-2576	256	16608	-16055	169	314	117	-5136	-4032	15120	-16547	-208	148	64	-288	-1248	-16256	-16268	321	206	114	-1920	-4240	15824
-15242	-129	92	126	-2624	176	16704	-16067	163	307	121	-5200	-4032	14976	-16547	-210	140	56	-208	-1376	-16128	-16294	323	215	116	-1872	-4160	15808
-15233	-133	91	122	-2576	272	16528	-16075	161	314	116	-5168	-3984	15136	-16542	-205	137	65	-224	-1312	-16128	-16305	316	209	122	-1792	-4160	15952
-15203	-129	89	115	-2608	208	16576	-16074	171	306	111	-5104	-3936	15120	-16545	-201	138	65	-240	-1328	-16096	-16294	328	208	114	-1744	-4160	15904
-15220	-133	89	121	-2512	256	16624	-16064	165	314	117	-5200	-3968	15072	-16534	-208	141	62	-256	-1264	-16112	-16299	321	209	118	-1808	-4128	15952
-15240	-129	86	121	-2544	208	16704	-16065	168	311	111	-5248	-3904	15056	-16531	-205	133	72	-272	-1344	-16128	-16289	322	215	115	-1744	-4272	15904
-15251	-126	89	121	-2576	224	16512	-16072	165	320	109	-5216	-3888	15120	-16524	-213	139	64	-176	-1248	-16240	-16272	323	205	123	-1840	-4160	15856
-15235	-132	91	117	-2592	272	16736	-16067	169	301	113	-5216	-4000	15008	-16539	-213	138	66	-240	-1360	-16176	-16296	319	214	121	-1840	-4192	15888
-15204	-131	90	120	-2608	176	16576	-16065	167	315	112	-5184	-3904	15200	-16548	-217	143	64	-256	-1296	-16176	-16296	327	211	116	-1792	-4224	15904
-15239	-129	89	116	-2576	192	16720	-16078	167	314	111	-5184	-3968	15136	-16547	-213	128	63	-256	-1248	-16144	-16293	318	212	110	-1888	-4256	15952
-15224	-133	92	126	-2592	256	16560	-16059	166	310	112	-5152	-3968	15008	-16537	-219	150	71	-272	-1344	-16112	-16305	321	208	114	-1840	-4240	15920
-15232	-128	90	121	-2576	288	16592	-16059	166	312	119	-5200	-3984	15072	-16537	-205	143	73	-208	-1312	-16128	-16306	322	205	106	-1904	-4176	15824
-15232	-136	93	119	-2544	256	16640	-16045	164	307	120	-5232	-3936	15056	-16519	-207	137	72	-240	-1328	-16096	-16292	317	211	120	-1792	-4160	15760
-15240	-125	87	120	-2624	240	16576	-16072	172	320	111	-5248	-4016	15104	-16567	-206	144	72	-256	-1248	-16096	-16291	323	217	116	-1808	-4160	15952
-15233	-125	89	120	-2512	304	16528	-16071	161	314	115	-5136	-4048	15056	-16532	-215	145	65	-320	-1296	-16112	-16298	318	210	117	-1904	-4176	15872
-15230	-129	88	115	-2560	256	16544	-16082	178	301	112	-5152	-3952	15008	-16549	-211	139	66	-320	-1312	-16192	-16265	321	210	115	-1856	-4192	15920
-15215	-129	95	121	-2480	192	16560	-16068	178	305	118	-5200	-3984	15072	-16523	-214	141	71	-304	-1312	-16144	-16287	324	211	122	-1856	-4144	15824
-15224	-126	97	116	-2592	304	16656	-16068	177	317	108	-5184	-3968	15056	-16518	-211	140	63	-224	-1312	-16256	-16288	324	207	118	-1808	-4176	16048
-15229	-132	94	117	-2592	192	16656	-16047	164	304	107	-5136	-4032	15184	-16530	-213	129	66	-256	-1296	-16192	-16287	320	213	116	-1840	-4192	16016
-15225	-134	89	125	-2592	256	16592	-16068	174	307	115	-5152	-4032	15248	-16551	-213	138	69	-256	-1232	-16160	-16292	320	219	119	-1888	-4144	15840
-15234	-128	90	119	-2640	352	16592	-16068	166	303	118	-5216	-3952	15040	-16549	-211	142	66	-272	-1264	-16144	-16284	322	216	115	-1856	-4160	15696
-15226	-127	92	119	-2576	160	16560	-16056	170	301	117	-5152	-4000	15120	-16549	-219	135	62	-288	-1376	-16128	-16287	321	206	113	-1904	-4160	15808
-15224	-129	91	119	-2624	224	16640	-16076	167	301	111	-5264	-4064	15184	-16526	-216	143	64	-192	-1232	-16176	-16297	324	207	111	-1824	-4192	15904
-15229	-138	93	119	-2608	272	16608	-16079	164	301	110	-5200	-3984	15056	-16525	-210	134	66	-208	-1296	-16160	-16302	320	210	120	-1792	-4192	15840
-15211	-133	89	118	-2624	256	16704	-16084	167	301	103	-5264	-4000	15120	-16543	-216	142	73	-288	-1328	-16112	-16291	316	211	122	-1824	-4240	16000
-15221	-137	88	118	-2464	304	16640	-16067	167	316	109	-5136	-4000	15136	-16527	-211	135	68	-208	-1280	-16192	-16286	324	213	119	-1824	-4208	15888
-15225	-137	86	117	-2624	224	16704	-16065	171	308	115	-5120	-3952	15104	-16527	-217	135	66	-240	-1312	-16256	-16276	316	206	122	-1888	-4208	15952
-15237	-129	99	130	-2528	192	16528	-16075	165	302	115	-5264	-4048	15184	-16534	-210	131	65	-304	-1232	-16192	-16285	315	202	123	-1952	-4144	15808
-15218	-129	97	123	-2512	208	16544	-16070	166	306	115	-5248	-3952	15056	-16533	-201	138	66	-288	-1312	-16144	-16274	315	205	110	-1840	-4160	15984
-15220	-134	88	115	-2576	224	16640	-16057	171	306	109	-5152	-4064	15120	-16550	-213	135	65	-272	-1344	-16160	-16285	318	204	115	-1744	-4192	15888
-15238	-128	90	118	-2640	224	16656	-16068	163	312	107	-5168	-3984	15104	-16542	-210	136	63	-208	-1280	-16176	-16291	321	213	119	-1888	-4208	15888
-15223	-130	96	115	-2512	144	16720	-16065	168	312	113	-5264	-3920	15152	-16530	-200	135	61	-320	-1280	-16208	-16279	322	218	111	-1808	-4144	15904
-15240	-135	89	118	-2672	192	16688	-16074	175	310	114	-5200	-3920	15120	-16513	-201	131	65	-272	-1280	-16208	-16292	323	209	114	-1872	-4240	15936
-15245	-126	88	126	-2576	240	16752	-16044	168	322	117	-5216	-4048	15008	-16538	-212	135	61	-208	-1232	-16256	-16294	318	206	117	-1872	-4192	15872
-15238	-132	93	119	-2512	208	16688	-16053	181	314	117	-5200	-3984	15168	-16528	-215	145	66	-288	-1296	-16224	-16285	312	207	116	-1808	-4208	16016
-15240	-129	97	122	-2608	192	16656	-16064	168	314	116	-5216	-3968	15120	-16531	-208	141	65	-320	-1296	-16192	-16318	323	211	120	-1888	-4256	15968
-15237	-131	89	112	-2576	240	16656	-16084	168	321	116	-5152	-4032	14960	-16516	-206	142	65	-256	-1296	-16272	-16297	321	215	113	-1728	-4224	15840
-15224	-142	95	124	-2544	176	16656	-16071	163	307	112	-5200	-3984	15104	-16547	-206	134	65	-160	-1296	-16112	-16302	318	216	118	-1760	-4192	15952
-15239	-138	94	123	-2464	224	16464	-16067	167	304	106	-5216	-3920	15152	-16510	-211	138	65	-224	-1296	-16096	-16277	328	205	114	-1760	-4208	15792
-15234	-130	95	125	-2624	256	16592	-16073	172	318	116	-5232	-3952	15120	-16536	-213	140	63	-288	-1296	-16176	-16291	315	208	113	-1888	-4240	15840
-15237	-127	87	128	-2560	272	16528	-16071	174	310	110	-5216	-3936	15136	-16531	-216	138	65	-288	-1232	-16096	-16281	319	207	115	-1920	-4128	15872
-15231	-128	91	119	-2528	224	16656	-16066	172	306	110	-5152	-4032	15072	-16544	-212	128	67	-272	-1312	-16032	-16291	319	209	110	-1936	-4288	15936
-15226	-137	81	124	-2576	336	16544	-16074	168	311	110	-5136	-3952	15056	-16557	-204	133	66	-288	-1312	-16208	-16293	320	208	115	-1808	-4112	15888
-15222	-133	87	124	-2544	272	16640	-16067	169	310	108	-5184	-3936	15088	-16546	-204	132	69	-288	-1328	-16272	-16287	324	209	119	-1744	-4192	16032
-15237	-123	89	125	-2656	160	16480	-16051	168	317	117	-5184	-4064	15056	-16517	-207	135	69	-288	-1296	-16048	-16272	326	216	120	-1760	-4240	15888
-15226	-124	92	123	-2560	224	16624	-16073	167	305	109	-5200	-3872	15056	-16530	-217	136	71	-272	-1232	-16128	-16300	322	209	117	-1904	-4224	15888
-15218	-128	88	114	-2592	176	16704	-16054	170	313	113	-5184	-3968	15168	-16536	-207	126	62	-224	-1296	-16192	-16295	325	211	112	-1744	-4064	15824
-15239	-129	91	123	-2544	208	16736	-16054	170	307	105	-5248	-4032	15152	-16552	-206	136	74	-304	-1360	-16176	-16301	321	207	120	-1840	-4272	15824
-15217	-129	88	116	-2576	128	16704	-16049	167	315	110	-5152	-4080	15088	-16552	-210	138	61	-304	-1328	-16272	-16288	327	210	117	-1872	-4240	15872
-15232	-128	86	117	-2608	224	16640	-16053	166	307	113	-5216	-4016	15184	-16517	-213	143	66	-288	-1248	-16208	-16281	323	214	115	-1760	-4160	15952
-15220	-132	86	123	-2608	208	16656	-16061	166	323	108	-5200	-4032	15120	-16541	-202	144	66	-288	-1248	-16144	-16292	326	212	110	-1808	-4224	15888
-15214	-130	85	122	-2592	176	16640	-16075	166	324	111	-5168	-4000	15024	-16547	-207	140	72	-208	-1216	-16208	-16285	325	209	122	-1872	-4224	16000
-15215	-127	88	118	-2544	256	16704	-16100	167	311	115	-5264	-4016	15104	-16517	-212	140	68	-256	-1232	-16208	-16302	326	212	118	-1824	-4176	15952
-15221	-129	99	124	-2512	240	16640	-16059	166	309	114	-5200	-4016	15088	-16541	-210	132	62	-288	-1296	-16144	-16314	318	206	113	-1808	-4176	15888
-15242	-129	94	131	-2640	320	16640	-16070	165	319	113	-5152	-4048	15120	-16541	-215	126	66	-272	-1392	-16256	-16299	322	216	117	-1776	-4224	16016
-15250	-135	91	121	-2624	224	16656	-16066	171	316	118	-5168	-3840	15120	-16537	-207	136	73	-224	-1248	-16288	-16294	328	210	119	-1760	-4304	15952
-15212	-134	86	117	-2656	256	16640	-16056	164	317	114	-5264	-4000	14944	-16549	-207	136	66	-224	-1296	-16192	-16283	319	214	120	-1792	-4224	15952
-15238	-130	89	124	-2480	272	16592	-16072	166	312	116	-5200	-3968	15184	-16546	-207	138	71	-272	-1232	-16192	-16270	319	218	116	-1888	-4176	15888
-15223	-127	95	127	-2592	112	16640	-16080	167	308	116	-5184	-4032	15184	-16550	-206	139	66	-256	-1296	-16144	-16276	317	208	110	-1840	-4176	15888
-15220	-130	90	127	-2624	192	16640	-16083	168	311	120	-5200	-3952	15024	-16537	-210	140	68	-256	-1344	-16192	-16296	326	207	108	-1760	-4272	15904
-15235	-133	90	118	-2560	336	16576	-16063	167	301	115	-5168	-3888	15136	-16561	-207	133	72	-240	-1264	-16048	-16306	314	217	113	-1936	-4224	16080
-15242	-127	85	121	-2624	240	16672	-16077	171	311	116	-5184	-3888	15136	-16543	-204	134	73	-272	-1344	-16224	-16291	316	211	118	-1760	-4208	15872
-15236	-129	95	118	-2528	144	16672	-16060	173	315	118	-5184	-3936	14960	-16533	-213	138	66	-272	-1376	-16144	-16289	326	209	108	-1824	-4144	16000
-15222	-126	93	115	-2624	176	16576	-16078	169	305	112	-5216	-3904	15056	-16501	-210	149	63	-160	-1296	-16080	-16291	322	211	117	-1952	-4208	15936
-15236	-127	87	118	-2688	192	16656	-16049	162	299	113	-5168	-4016	15072	-16546	-207	137	62	-304	-1376	-16144	-16288	318	213	121	-1824	-4144	15888
-15219	-128	87	116	-2512	256	16640	-16057	175	297	117	-5232	-4032	15024	-16545	-214	139	69	-288	-1248	-16208	-16298	322	212	118	-1872	-4192	15760
-15216	-130	91	118	-2576	224	16496	-16062	173	309	114	-5136	-3952	15136	-16528	-204	132	61	-256	-1312	-16208	-16281	322	205	116	-1888	-4192	16000
-15217	-137	95	125	-2528	256	16688	-16058	175	311	111	-5200	-4016	15088	-16523	-216	138	65	-208	-1328	-16112	-16295	315	206	118	-1872	-4160	15856
-15239	-132	95	122	-2640	160	16720	-16068	169	311	113	-5200	-3968	15104	-16524	-210	137	76	-272	-1360	-16224	-16262	316	212	115	-1840	-4208	15952
-15213	-135	92	124	-2560	256	16624	-16068	169	308	117	-5168	-4000	15008	-16531	-208	128	65	-272	-1248	-16144	-16278	318	210	120	-1808	-4208	15952
-15244	-133	86	127	-2640	256	16560	-16074	178	324	107	-5168	-3984	15168	-16538	-205	140	71	-320	-1328	-16144	-16272	324	208	111	-1744	-4192	15856
-15221	-134	84	121	-2528	192	16672	-16059	170	322	112	-5200	-3968	15152	-16539	-209	136	69	-288	-1360	-16272	-16286	324	216	113	-1872	-4176	15888
-15218	-132	93	117	-2576	256	16640	-16056	174	308	112	-5184	-3968	15104	-16518	-206	140	66	-320	-1248	-16096	-16299	314	207	108	-1776	-4176	15888
-15241	-136	95	105	-2672	224	16768	-16069	171	314	117	-5120	-3984	15168	-16533	-207	136	61	-240	-1360	-16208	-16306	328	215	112	-1936	-4192	16000
-15247	-135	88	118	-2576	208	16640	-16063	167	306	117	-5136	-4048	15168	-16539	-210	136	69	-192	-1376	-16016	-16281	319	208	119	-1808	-4128	15888
-15236	-139	83	123	-2640	160	16544	-16074	164	305	113	-5168	-3968	15120	-16545	-210	142	63	-256	-1296	-16192	-16284	315	203	115	-1856	-4160	15808
-15215	-133	86	125	-2576	176	16656	-16085	164	318	112	-5200	-4016	15024	-16525	-210	141	57	-208	-1408	-16208	-16300	320	211	117	-1744	-4224	15952
-15238	-130	104	121	-2576	256	16672	-16055	171	309	114	-5152	-4080	15072	-16533	-205	136	64	-304	-1376	-16192	-16285	325	211	118	-1888	-4176	15888
-15221	-131	84	117	-2576	272	16560	-16069	167	311	113	-5168	-4016	15152	-16534	-212	134	68	-144	-1344	-16192	-16290	322	212	112	-1888	-4144	15888
-15240	-126	93	110	-2528	224	16688	-16065	161	318	118	-5152	-4016	15120	-16551	-212	130	72	-272	-1312	-16128	-16287	330	213	120	-1760	-4128	15808
-15221	-127	96	115	-2512	176	16672	-16071	163	299	110	-5152	-3968	15040	-16546	-210	132	71	-224	-1264	-16080	-16286	324	218	123	-1872	-4192	15952
-15225	-126	80	123	-2512	256	16784	-16067	164	310	116	-5120	-3984	15088	-16523	-206	145	64	-272	-1280	-16144	-16284	320	212	127	-1776	-4256	15920
-15233	-128	92	120	-2512	208	16640	-16068	170	306	113	-5232	-3952	15008	-16534	-215	139	63	-176	-1360	-16192	-16269	320	205	122	-1840	-4224	16032
-15216	-133	85	121	-2576	256	16544	-16048	166	309	110	-5168	-3920	15168	-16567	-210	130	65	-256	-1280	-16048	-16287	318	210	125	-1904	-4208	15824
-15241	-130	90	113	-2544	224	16704	-16079	167	313	111	-5232	-3936	15184	-16553	-210	131	65	-224	-1312	-16224	-16303	319	210	119	-1824	-4208	15824
-15238	-135	95	123	-2576	160	16528	-16068	175	317	122	-5200	-3904	15056	-16528	-204	133	67	-272	-1248	-16240	-16291	316	208	112	-1872	-4208	15888
-15231	-137	90	119	-2528	224	16640	-16067	170	307	118	-5216	-3920	15168	-16550	-215	138	68	-272	-1296	-16240	-16287	318	204	110	-1856	-4176	15904
-15231	-134	94	123	-2496	256	16528	-16070	165	308	113	-5216	-3984	15056	-16533	-208	138	66	-224	-1280	-16144	-16301	318	213	122	-2000	-4192	15952
-15228	-129	95	114	-2624	224	16656	-16066	173	310	113	-5168	-4016	15056	-16548	-213	132	67	-288	-1376	-16144	-16318	322	212	120	-1808	-4256	15856
-15225	-137	93	122	-2544	176	16752	-16054	171	323	110	-5104	-4032	15184	-16527	-211	144	66	-240	-1280	-16272	-16281	317	212	121	-1856	-4208	15728
-15249	-123	90	117	-2560	320	16608	-16058	167	314	115	-5136	-3968	15168	-16530	-206	138	68	-272	-1344	-16192	-16295	325	210	120	-1808	-4144	15888
-15229	-132	94	114	-2544	256	16640	-16054	168	294	111	-5152	-4000	15120	-16541	-208	132	64	-272	-1312	-16240	-16305	318	217	114	-1888	-4144	15808
-15233	-132	90	125	-2528	336	16640	-16056	171	306	113	-5152	-4000	15024	-16553	-205	137	66	-336	-1200	-16176	-16281	319	206	117	-1936	-4288	15872
-15234	-129	88	114	-2528	288	16592	-16058	164	315	110	-5168	-4016	15184	-16552	-207	139	64	-336	-1232	-16112	-16283	312	210	112	-1824	-4240	15984
-15242	-129	89	124	-2544	272	16528	-16053	171	313	116	-5088	-4016	15072	-16512	-206	137	64	-240	-1328	-16208	-16293	316	214	114	-1872	-4160	15952
-15225	-130	95	122	-2528	224	16640	-16051	173	306	113	-5200	-3920	15168	-16530	-207	143	64	-256	-1328	-16144	-16293	323	214	115	-1792	-4224	15888
-15236	-132	97	117	-2592	224	16496	-16060	171	328	117	-5296	-4000	15104	-16540	-210	139	60	-176	-1328	-16080	-16298	322	210	120	-1776	-4144	15920
-15235	-128	92	118	-2464	176	16496	-16064	169	307	114	-5120	-4000	15120	-16505	-211	136	66	-224	-1312	-16176	-16293	322	214	116	-1872	-4160	15936
-15221	-130	88	130	-2640	256	16704	-16063	155	306	117	-5168	-4048	15120	-16529	-211	145	75	-272	-1376	-16288	-16296	323	210	116	-1824	-4224	15952
-15229	-131	95	128	-2624	352	16704	-16057	163	311	115	-5200	-4000	15168	-16549	-207	129	64	-224	-1200	-16176	-16277	327	213	116	-1824	-4208	15888
-15234	-126	89	119	-2512	256	16464	-16072	158	312	111	-5152	-3920	15024	-16535	-210	140	64	-256	-1376	-16240	-16284	322	208	116	-1824	-4224	15984
-15241	-133	92	123	-2640	256	16624	-16068	170	311	112	-5232	-4016	15056	-16516	-215	138	67	-224	-1376	-16208	-16289	319	211	124	-1824	-4208	15968
-15226	-136	85	118	-2640	256	16672	-16083	176	306	117	-5200	-4000	15152	-16539	-211	138	67	-224	-1328	-16176	-16283	319	212	114	-1968	-4304	15888
-15233	-135	95	116	-2480	240	16720	-16079	169	322	112	-5104	-3968	15200	-16524	-207	141	69	-256	-1312	-16208	-16295	316	208	118	-1728	-4192	15824
-15266	-128	95	123	-2480	240	16592	-16088	170	311	117	-5168	-3920	15152	-16530	-212	139	69	-208	-1344	-16224	-16277	319	202	116	-1904	-4256	15824
-15246	-125	94	124	-2592	272	16528	-16074	160	310	114	-5104	-3952	15120	-16510	-209	136	65	-288	-1248	-16128	-16288	323	214	118	-1808	-4176	15936
-15218	-129	91	124	-2576	160	16640	-16054	167	329	114	-5200	-3984	15008	-16547	-209	134	62	-288	-1296	-16256	-16280	320	215	118	-1904	-4112	15936
-15232	-137	92	118	-2512	144	16656	-16077	173	319	114	-5216	-3952	15152	-16543	-202	132	68	-224	-1264	-16176	-16299	315	206	121	-1872	-4272	15824
-15233	-126	87	119	-2640	176	16656	-16070	165	316	110	-5104	-4000	15152	-16531	-213	130	73	-208	-1280	-16208	-16294	319	210	113	-1824	-4144	15888
-15217	-130	100	124	-2528	304	16656	-16049	167	310	124	-5200	-4064	15168	-16516	-215	135	60	-240	-1264	-16224	-16287	318	207	114	-1856	-4176	15936
-15211	-128	86	121	-2528	192	16720	-16058	170	314	116	-5200	-3968	15120	-16502	-213	147	72	-272	-1280	-16176	-16292	322	207	118	-1952	-4176	16048
-15247	-127	104	122	-2576	208	16592	-16078	160	315	118	-5216	-3968	15136	-16545	-206	137	71	-288	-1264	-16176	-16285	321	206	116	-1728	-4192	16064
-15222	-129	93	114	-2560	144	16688	-16057	170	307	118	-5200	-3984	15152	-16551	-211	133	68	-256	-1296	-16240	-16284	323	210	116	-1840	-4208	15824
-15228	-128	95	121	-2560	272	16688	-16062	169	305	117	-5184	-3936	15104	-16546	-209	133	72	-192	-1328	-16096	-16295	320	209	112	-1856	-4160	15984
-15209	-125	85	112	-2608	192	16560	-16077	171	317	117	-5216	-4000	15024	-16557	-202	138	66	-272	-1280	-16144	-16278	324	210	112	-1792	-4320	15824
-15220	-132	96	113	-2560	192	16720	-16084	173	315	111	-5200	-3936	15008	-16533	-205	138	66	-256	-1280	-16224	-16277	324	215	115	-1824	-4064	15856
-15212	-134	94	118	-2608	224	16640	-16075	170	313	114	-5152	-4048	15072	-16537	-211	137	74	-208	-1328	-16096	-16288	320	214	109	-1872	-4160	15968
-15205	-137	87	114	-2624	224	16688	-16078	176	305	120	-5280	-3984	15104	-16540	-212	138	66	-208	-1360	-16128	-16283	329	215	117	-1856	-4112	15904
-15235	-138	96	127	-2608	256	16560	-16063	168	317	115	-5200	-3904	14992	-16528	-206	141	69	-240	-1264	-16336	-16285	331	208	121	-1808	-4144	15968
-15223	-135	89	123	-2592	224	16640	-16059	179	321	118	-5200	-4032	15120	-16530	-210	147	64	-224	-1296	-16128	-16289	315	204	117	-1808	-4160	15856
-15251	-134	94	120	-2576	208	16528	-16040	173	310	116	-5200	-4000	15056	-16524	-205	139	56	-288	-1344	-16160	-16279	324	214	123	-1824	-4320	15888
-15252	-136	99	122	-2656	224	16688	-16065	171	314	113	-5184	-3968	15072	-16525	-209	140	67	-272	-1360	-16176	-16291	323	219	120	-1840	-4176	15760
-15236	-132	89	119	-2592	160	16720	-16077	170	306	115	-5184	-3952	15184	-16524	-209	144	64	-304	-1328	-16128	-16287	320	211	110	-1824	-4192	15840
-15227	-132	89	121	-2640	272	16624	-16077	168	319	114	-5136	-3984	15136	-16530	-212	137	67	-304	-1264	-16208	-16287	317	205	121	-1888	-4192	15920
-15245	-130	91	109	-2576	240	16672	-16073	167	304	114	-5232	-4000	15072	-16541	-210	145	65	-208	-1344	-16160	-16297	315	210	108	-1824	-4224	15856
-15216	-133	91	127	-2640	256	16656	-16080	175	310	116	-5104	-3968	15120	-16541	-213	139	62	-288	-1296	-16224	-16295	324	216	120	-1856	-4192	15824
-15243	-131	91	119	-2592	224	16704	-16056	162	307	117	-5216	-4000	15056	-16533	-221	135	63	-240	-1232	-16112	-16286	324	210	120	-1920	-4176	15856
-15235	-134	88	117	-2544	224	16640	-16085	168	305	109	-5136	-4032	15040	-16531	-208	139	56	-272	-1248	-16208	-16305	320	209	119	-1808	-4304	15840
-15231	-128	92	118	-2608	224	16720	-16082	170	313	105	-5088	-3952	15104	-16541	-204	135	68	-320	-1312	-16000	-16282	318	210	114	-1872	-4160	15984
-15215	-132	89	120	-2560	256	16768	-16056	166	326	109	-5184	-4032	15104	-16547	-214	139	64	-256	-1296	-16176	-16297	315	206	114	-1808	-4144	15808
-15229	-135	94	120	-2512	240	16656	-16058	172	312	113	-5232	-4048	15072	-16543	-211	136	69	-272	-1312	-16176	-16292	317	205	117	-1792	-4160	15872
-15215	-136	88	126	-2560	192	16640	-16077	165	313	107	-5072	-4000	15056	-16560	-208	151	65	-240	-1232	-16128	-16279	316	206	117	-1856	-4192	15872
-15231	-129	93	118	-2544	288	16784	-16080	172	313	109	-5168	-3920	15104	-16555	-216	141	70	-208	-1280	-16208	-16298	327	207	117	-1792	-4272	16000
-15243	-130	89	124	-2608	176	16656	-16078	172	319	121	-5184	-4032	15152	-16531	-217	133	63	-288	-1328	-16128	-16302	323	208	116	-1808	-4128	15808
-15228	-127	92	125	-2656	256	16640	-16062	162	309	116	-5136	-4000	15104	-16520	-205	138	69	-192	-1312	-16208	-16295	319	212	121	-1824	-4128	15888
-15237	-123	88	116	-2528	224	16480	-16048	170	308	112	-5232	-4032	15152	-16534	-206	135	65	-208	-1408	-16112	-16305	322	218	121	-1760	-4304	15856
-15242	-125	88	128	-2592	240	16640	-16062	172	315	111	-5152	-3936	15120	-16541	-207	139	68	-176	-1232	-16080	-16288	323	215	122	-1824	-4176	15792
-15217	-135	95	118	-2544	256	16656	-16051	167	304	116	-5248	-4048	15024	-16542	-207	141	67	-224	-1360	-16000	-16302	318	212	117	-1824	-4160	15888
-15216	-137	88	119	-2592	176	16640	-16051	167	303	106	-5200	-3936	15088	-16538	-206	134	63	-256	-1232	-16192	-16299	325	216	111	-1840	-4224	15856
-15234	-131	86	109	-2640	160	16656	-16077	165	316	113	-5232	-4064	14992	-16543	-206	139	71	-192	-1296	-16192	-16307	331	212	117	-1840	-4192	15904
-15220	-128	79	116	-2592	288	16592	-16045	172	317	115	-5168	-4032	15200	-16541	-208	138	60	-160	-1280	-16112	-16269	322	215	118	-1840	-4160	15856
-15207	-126	83	115	-2592	224	16560	-16046	172	322	118	-5168	-3952	15056	-16570	-214	139	63	-288	-1328	-16128	-16280	317	208	120	-1840	-4192	15824
-15238	-133	93	126	-2560	240	16736	-16059	170	318	109	-5168	-4096	15120	-16543	-213	142	62	-272	-1296	-16176	-16289	320	210	122	-1840	-4240	15824
-15213	-134	91	123	-2512	224	16640	-16062	172	311	109	-5248	-3936	15280	-16543	-206	132	68	-208	-1312	-16288	-16285	317	214	118	-1856	-4208	16032
-15228	-139	87	125	-2544	256	16528	-16060	170	318	104	-5200	-4016	15184	-16549	-211	136	64	-240	-1280	-16160	-16276	327	207	118	-1904	-4144	15952
-15233	-126	98	121	-2608	192	16608	-16095	168	315	114	-5184	-4000	15088	-16546	-211	144	74	-224	-1296	-16176	-16298	317	206	120	-1808	-4240	15824
-15233	-129	95	114	-2528	256	16544	-16056	168	314	109	-5216	-3856	15072	-16539	-211	132	67	-272	-1248	-16096	-16270	319	205	118	-1904	-4048	15888
-15222	-126	85	128	-2592	320	16640	-16076	166	300	110	-5136	-4032	15120	-16504	-215	131	65	-240	-1264	-16112	-16298	318	211	115	-1872	-4048	15824
-15241	-133	96	121	-2592	128	16768	-16073	176	304	121	-5136	-4000	15008	-16535	-210	146	65	-272	-1296	-16192	-16287	313	203	116	-1904	-4176	15952
-15218	-135	94	118	-2624	192	16640	-16085	168	315	113	-5120	-4016	15136	-16518	-216	139	64	-256	-1296	-16096	-16290	320	211	113	-1872	-4208	15920
-15224	-136	84	117	-2592	240	16704	-16079	176	300	110	-5216	-3952	15024	-16538	-211	140	75	-256	-1296	-16256	-16296	324	214	121	-1808	-4208	15952
-15230	-131	91	124	-2592	208	16752	-16056	174	312	111	-5168	-3920	14992	-16521	-219	143	63	-176	-1248	-16304	-16278	324	205	118	-1872	-4176	15888
-15220	-131	96	119	-2544	224	16512	-16044	168	310	122	-5216	-3984	15056	-16509	-214	147	63	-224	-1248	-16128	-16258	321	204	122	-1840	-4256	15952
-15222	-130	94	123	-2512	256	16768	-16067	165	314	121	-5200	-3936	15104	-16527	-215	130	66	-288	-1264	-16144	-16286	319	211	119	-1824	-4272	15824
-15240	-127	91	118	-2592	208	16592	-16050	169	316	102	-5232	-3936	15168	-16548	-218	136	67	-208	-1232	-16112	-16285	325	211	121	-1824	-4176	15872
-15230	-132	97	120	-2592	208	16528	-16042	166	316	114	-5168	-3952	15120	-16540	-207	136	66	-336	-1280	-16224	-16290	316	212	117	-1856	-4240	15808
-15227	-132	86	115	-2576	208	16592	-16069	177	321	106	-5072	-3920	15104	-16534	-215	136	65	-224	-1312	-16224	-16293	329	208	117	-1952	-4160	15840
-15226	-130	92	126	-2640	208	16656	-16048	172	313	115	-5184	-4000	15216	-16543	-211	147	68	-272	-1248	-16144	-16307	325	208	116	-1904	-4192	15824
-15222	-128	88	115	-2608	128	16688	-16056	165	329	116	-5104	-3984	15024	-16539	-211	137	64	-288	-1408	-16272	-16291	318	202	115	-1808	-4176	15856
-15245	-132	88	123	-2592	240	16688	-16086	174	328	117	-5216	-3968	15184	-16550	-200	139	67	-288	-1328	-16144	-16284	320	203	116	-1744	-4192	15840
-15238	-132	93	115	-2592	224	16528	-16074	170	324	110	-5216	-3984	15136	-16545	-207	139	70	-224	-1328	-16144	-16303	320	215	113	-1904	-4272	16080
-15230	-132	86	116	-2592	336	16528	-16053	165	301	118	-5168	-3984	15120	-16546	-205	131	61	-224	-1344	-16176	-16289	320	206	122	-1824	-4192	15920
-15215	-134	87	117	-2576	240	16688	-16044	161	292	113	-5088	-3952	14992	-16547	-212	131	65	-272	-1296	-16128	-16288	330	209	114	-1760	-4176	15872
-15209	-133	95	116	-2528	160	16640	-16059	172	316	111	-5216	-4032	15104	-16542	-214	143	67	-320	-1312	-16272	-16300	317	208	120	-1872	-4192	16016
-15216	-132	90	119	-2640	192	16640	-16046	165	320	114	-5200	-3984	15120	-16497	-210	140	64	-240	-1312	-16256	-16300	326	210	120	-1904	-4128	15984
-15230	-136	102	118	-2512	176	16688	-16049	165	308	115	-5200	-3936	15168	-16520	-209	137	63	-208	-1344	-16048	-16294	326	217	117	-1840	-4160	15888
-15227	-134	92	117	-2576	224	16688	-16064	169	317	107	-5136	-3984	15072	-16540	-216	136	68	-176	-1392	-16304	-16302	314	216	118	-1840	-4208	15952
-15216	-136	90	120	-2608	256	16688	-16082	170	309	112	-5216	-3952	15056	-16556	-212	144	61	-224	-1376	-16256	-16299	318	208	110	-1808	-4256	15888
-15215	-135	91	122	-2608	272	16736	-16073	169	312	119	-5216	-4016	15120	-16530	-206	144	64	-256	-1328	-16224	-16288	325	212	111	-1888	-4160	15776
-15213	-128	89	117	-2528	288	16656	-16049	171	308	119	-5200	-4000	15024	-16539	-211	132	61	-304	-1296	-16176	-16311	322	210	117	-1824	-4176	15952
-15204	-134	79	125	-2592	240	16560	-16079	168	303	114	-5200	-3920	15024	-16541	-205	139	71	-224	-1280	-16192	-16292	324	212	109	-1872	-4240	16000
-15232	-129	89	114	-2544	224	16688	-16081	162	311	111	-5136	-4064	15120	-16538	-211	138	67	-160	-1296	-16112	-16300	321	208	112	-1776	-4160	15872
-15227	-129	84	109	-2496	336	16640	-16068	163	318	110	-5088	-3936	15168	-16537	-214	139	63	-272	-1328	-16256	-16290	314	219	118	-1856	-4208	15872
-15239	-125	89	127	-2672	192	16704	-16082	172	316	104	-5168	-4000	15104	-16522	-213	138	71	-256	-1296	-16032	-16294	325	212	120	-1920	-4192	15840
-15222	-129	87	118	-2576	176	16640	-16072	169	323	118	-5232	-4016	15104	-16521	-215	137	67	-224	-1344	-16272	-16296	322	202	118	-1904	-4192	15936
-15234	-129	94	117	-2544	256	16592	-16058	180	315	111	-5152	-4032	15040	-16539	-209	134	68	-288	-1296	-16176	-16293	320	215	112	-1808	-4176	15952
-15237	-133	90	112	-2528	256	16656	-16082	164	319	115	-5120	-3984	15168	-16539	-212	136	64	-272	-1232	-16176	-16294	325	218	112	-1744	-4192	15888
-15227	-132	94	124	-2592	160	16576	-16061	172	322	110	-5200	-3984	15088	-16551	-210	127	56	-224	-1168	-16160	-16275	329	217	119	-1872	-4176	15792
-15208	-134	91	122	-2528	256	16656	-16072	167	315	112	-5168	-4016	15232	-16545	-210	143	56	-256	-1264	-16304	-16287	316	213	114	-1776	-4272	15904
-15228	-134	86	119	-2576	144	16544	-16069	172	313	116	-5216	-3968	15104	-16549	-218	145	67	-272	-1312	-16128	-16293	318	209	113	-1840	-4128	15872
-15232	-138	84	118	-2608	256	16704	-16060	173	316	114	-5200	-3920	15216	-16565	-208	141	61	-304	-1360	-16144	-16287	324	209	121	-1936	-4160	15936
-15239	-137	92	124	-2672	240	16640	-16072	165	323	119	-5200	-3984	15104	-16538	-210	136	64	-272	-1312	-16272	-16286	323	209	114	-1840	-4224	15824
-15238	-132	93	119	-2592	256	16672	-16063	172	321	109	-5264	-3952	15072	-16532	-210	131	68	-272	-1280	-16160	-16302	324	206	113	-1840	-4208	15824
-15229	-137	99	120	-2656	240	16416	-16045	169	317	112	-5200	-3968	15104	-16512	-208	137	70	-240	-1296	-16304	-16294	323	212	119	-1824	-4192	16016
-15221	-137	88	127	-2608	176	16752	-16066	167	319	113	-5184	-3888	15088	-16555	-206	133	60	-240	-1280	-16272	-16294	322	213	114	-1904	-4112	15936
-15218	-130	89	108	-2560	256	16528	-16070	167	313	112	-5136	-3920	15040	-16515	-215	129	61	-256	-1248	-16144	-16291	312	213	123	-1888	-4208	15984
-15226	-132	93	119	-2560	256	16720	-16069	169	324	115	-5104	-3936	15120	-16530	-211	134	57	-192	-1344	-16176	-16281	322	210	115	-1744	-4128	16032
-15231	-134	100	117	-2544	256	16656	-16065	170	324	118	-5200	-4048	15200	-16549	-209	132	58	-208	-1232	-16272	-16287	317	214	116	-1808	-4160	15984
-15237	-129	93	120	-2560	176	16656	-16059	175	323	122	-5200	-3936	15104	-16576	-214	141	64	-224	-1328	-16224	-16292	324	213	115	-1840	-4224	15888
-15231	-130	92	124	-2608	256	16560	-16070	168	319	117	-5136	-4064	15104	-16539	-203	133	67	-288	-1360	-16208	-16303	326	210	117	-1840	-4176	15808
-15244	-124	88	122	-2480	192	16640	-16081	170	320	117	-5152	-4064	15120	-16541	-213	140	66	-224	-1312	-16224	-16244	327	211	112	-1936	-4256	15936
-15218	-136	91	135	-2544	272	16704	-16083	167	316	110	-5104	-3968	15152	-16534	-215	139	65	-240	-1312	-16112	-16282	323	213	114	-1840	-4160	15792
-15224	-128	85	118	-2496	192	16512	-16073	165	308	108	-5184	-3936	15152	-16518	-206	132	63	-336	-1312	-16224	-16290	326	215	118	-1968	-4176	16096
-15219	-130	86	119	-2576	320	16704	-16074	169	309	115	-5200	-3952	15184	-16529	-210	141	70	-144	-1232	-16128	-16284	312	215	118	-1856	-4176	15952
-15216	-129	92	116	-2592	256	16624	-16060	162	322	113	-5136	-4016	15152	-16518	-212	143	60	-240	-1424	-16256	-16306	320	205	117	-1840	-4064	15856
-15243	-132	88	121	-2512	272	16560	-16060	162	323	108	-5216	-3968	15168	-16535	-207	135	66	-288	-1264	-16176	-16303	318	205	118	-1904	-4192	15920
-15239	-123	86	118	-2560	256	16512	-16053	159	318	118	-5168	-4016	15200	-16533	-202	142	64	-224	-1344	-16208	-16298	313	214	112	-1824	-4192	15808
-15223	-133	91	116	-2528	176	16640	-16065	173	312	115	-5152	-3936	15152	-16540	-207	128	66	-272	-1312	-16272	-16295	323	213	113	-1920	-4144	15888
-15234	-134	93	109	-2544	208	16656	-16067	171	318	119	-5200	-3920	15120	-16529	-212	140	61	-256	-1232	-16176	-16296	316	208	122	-1856	-4176	15696
-15247	-137	98	116	-2528	176	16592	-16050	169	317	116	-5232	-4016	15120	-16511	-206	137	64	-256	-1344	-16144	-16298	324	207	119	-1824	-4176	15920
-15231	-129	83	123	-2592	320	16672	-16066	177	315	117	-5136	-3872	15120	-16545	-208	141	69	-256	-1296	-16160	-16294	326	206	118	-1760	-4256	15904
-15242	-129	87	115	-2576	256	16576	-16067	165	333	107	-5152	-4016	15184	-16522	-209	137	60	-288	-1376	-16208	-16282	326	204	117	-1872	-4176	15856
-15259	-128	96	120	-2624	224	16640	-16056	168	321	114	-5248	-3936	15120	-16522	-211	134	68	-224	-1280	-16112	-16266	330	209	113	-1760	-4272	15856
-15238	-132	89	120	-2560	224	16560	-16064	166	307	116	-5184	-3952	15120	-16509	-199	145	65	-272	-1232	-16240	-16296	324	218	121	-1712	-4256	15904
-15215	-132	81	116	-2640	224	16640	-16066	169	325	114	-5168	-4064	15168	-16534	-206	142	69	-224	-1264	-16096	-16287	321	217	113	-1776	-4208	16048
-15244	-130	90	119	-2544	288	16688	-16076	170	314	113	-5072	-3984	15184	-16547	-205	137	67	-304	-1344	-16128	-16292	330	213	116	-1824	-4160	15728
-15223	-127	93	118	-2608	272	16528	-16053	169	320	115	-5152	-3952	15040	-16531	-215	138	67	-224	-1232	-16208	-16296	316	221	115	-1776	-4144	16032
-15198	-133	87	125	-2576	256	16576	-16062	168	320	116	-5184	-4064	15056	-16539	-209	132	67	-336	-1360	-16208	-16276	317	215	120	-1888	-4176	15936
-15231	-135	90	125	-2656	256	16640	-16056	170	330	115	-5088	-3920	15024	-16538	-212	132	66	-224	-1248	-16240	-16270	330	202	110	-1872	-4144	15856
-15225	-139	92	123	-2624	240	16704	-16060	172	324	107	-5264	-3984	14992	-16536	-216	140	70	-160	-1200	-16112	-16284	318	211	118	-1760	-4160	16016
-15243	-136	96	127	-2528	240	16608	-16066	173	313	116	-5168	-3984	15056	-16542	-210	134	69	-256	-1232	-16224	-16282	320	212	118	-1840	-4048	15952
-15223	-135	95	121	-2640	224	16528	-16059	171	324	120	-5216	-4000	15136	-16561	-212	139	71	-288	-1328	-16368	-16294	321	212	114	-1856	-4160	15872
-15216	-132	88	122	-2576	160	16688	-16074	172	315	110	-5200	-3904	15072	-16563	-211	130	69	-272	-1312	-16304	-16286	318	206	112	-1824	-4112	16000
-15226	-134	92	120	-2736	256	16592	-16062	169	313	109	-5216	-4000	15120	-16551	-219	139	62	-272	-1248	-16112	-16300	327	213	121	-1872	-4112	15984
-15204	-132	87	120	-2592	144	16720	-16063	171	323	117	-5248	-3920	15168	-16525	-208	140	70	-256	-1312	-16224	-16294	324	212	115	-1872	-4112	15792
-15222	-136	96	127	-2624	256	16576	-16070	169	315	115	-5184	-3952	15040	-16548	-209	132	64	-256	-1328	-16080	-16288	314	211	113	-1888	-4176	15920
-15227	-129	91	118	-2576	304	16576	-16086	173	320	114	-5152	-4064	15184	-16532	-209	137	65	-320	-1264	-16224	-16281	320	212	115	-1824	-4176	15824
-15197	-132	87	118	-2592	240	16656	-16054	168	321	106	-5136	-3952	15104	-16535	-201	143	63	-256	-1296	-16144	-16289	323	208	114	-1840	-4144	15872
-15240	-136	89	124	-2560	304	16704	-16079	167	321	114	-5216	-4048	15152	-16556	-207	136	68	-304	-1360	-16176	-16280	324	214	116	-1856	-4112	15824
-15232	-132	88	121	-2592	176	16624	-16059	168	328	117	-5184	-4016	15104	-16561	-215	135	64	-224	-1312	-16208	-16282	324	210	120	-1888	-4160	15888
-15204	-120	87	119	-2576	224	16640	-16081	164	325	116	-5168	-3920	15168	-16544	-211	141	64	-192	-1280	-16176	-16308	320	208	111	-1904	-4192	15904
-15233	-133	99	117	-2640	208	16688	-16068	169	324	112	-5184	-4064	15024	-16537	-217	139	72	-304	-1328	-16160	-16291	332	213	114	-1808	-4176	15872
-15220	-132	94	124	-2608	208	16576	-16058	176	324	113	-5200	-3968	15040	-16542	-216	146	71	-256	-1184	-16080	-16283	318	215	113	-1696	-4096	15936
-15240	-132	97	114	-2528	240	16640	-16061	169	312	117	-5200	-4000	15056	-16526	-217	126	67	-272	-1248	-16256	-16289	329	206	118	-1840	-4160	15888
-15239	-128	91	121	-2656	256	16560	-16066	169	309	109	-5184	-4000	15120	-16532	-209	128	69	-224	-1248	-16256	-16296	314	208	117	-1808	-4128	15696
-15233	-130	90	112	-2704	288	16672	-16074	175	315	104	-5152	-3984	15120	-16554	-219	129	64	-272	-1248	-16128	-16300	326	210	117	-1872	-4080	15888
-15224	-134	93	117	-2544	240	16656	-16075	171	316	122	-5216	-3984	15120	-16542	-214	141	67	-240	-1248	-16192	-16265	319	209	113	-1744	-4224	15872
-15232	-135	82	123	-2560	256	16784	-16078	173	312	112	-5168	-4032	15024	-16529	-212	138	60	-240	-1312	-16160	-16299	317	206	115	-1872	-4176	15920
-15239	-136	82	117	-2656	176	16640	-16067	169	307	116	-5168	-4032	15168	-16522	-211	138	62	-272	-1280	-16272	-16293	325	212	115	-1776	-4176	15920
-15236	-128	86	112	-2656	256	16656	-16066	171	306	117	-5200	-3920	15024	-16528	-208	143	69	-224	-1280	-16192	-16288	324	214	113	-1808	-4208	15920
-15245	-136	87	120	-2560	336	16656	-16046	174	306	115	-5168	-3968	15184	-16544	-205	145	58	-336	-1312	-16112	-16281	321	215	107	-1808	-4128	15840
-15218	-127	92	113	-2640	352	16544	-16057	160	315	117	-5216	-3952	15024	-16539	-207	140	69	-256	-1312	-16160	-16288	323	210	115	-1840	-4176	15984
-15220	-129	83	119	-2560	256	16464	-16064	167	320	119	-5200	-3952	15152	-16539	-211	138	65	-176	-1296	-16224	-16298	321	210	122	-1824	-4128	15936
-15218	-132	86	120	-2624	208	16640	-16064	170	319	118	-5184	-3968	15056	-16527	-206	142	76	-336	-1296	-16224	-16280	324	205	117	-1776	-4192	15952
-15232	-131	97	122	-2544	160	16560	-16064	163	332	112	-5136	-3968	15296	-16542	-213	140	68	-208	-1328	-16256	-16277	327	201	117	-1824	-4176	15904
-15236	-125	91	119	-2640	256	16688	-16073	170	308	108	-5200	-3936	15120	-16544	-203	134	70	-336	-1312	-16160	-16298	315	218	117	-1776	-4160	15920
-15220	-132	102	122	-2496	240	16704	-16069	167	315	110	-5248	-3920	15152	-16518	-216	135	62	-272	-1280	-16224	-16278	318	211	122	-1760	-4144	15984
-15211	-135	91	127	-2544	224	16640	-16061	166	322	106	-5152	-3936	15120	-16537	-201	135	71	-224	-1328	-16144	-16294	318	210	118	-1952	-4176	15904
-15240	-133	92	117	-2592	288	16608	-16055	173	323	111	-5136	-3936	14976	-16565	-212	139	66	-192	-1280	-16240	-16310	321	211	119	-1888	-4240	15792
-15247	-132	86	122	-2624	208	16736	-16040	172	318	104	-5152	-4000	15088	-16550	-214	138	72	-320	-1264	-16112	-16278	326	216	114	-1936	-4224	15984
-15239	-141	86	121	-2560	224	16624	-16047	172	306	107	-5216	-3952	15040	-16550	-211	141	66	-256	-1264	-16144	-16288	319	218	120	-1776	-4112	15952
-15233	-135	93	120	-2576	272	16592	-16060	168	319	106	-5088	-4000	15056	-16542	-214	139	66	-208	-1360	-16160	-16280	324	209	116	-1840	-4224	15888
-15237	-132	94	117	-2576	144	16720	-16064	170	327	110	-5168	-4048	15184	-16511	-213	133	61	-208	-1296	-16144	-16285	319	215	119	-1856	-4240	15952
-15235	-125	96	127	-2640	144	16688	-16063	166	321	115	-5168	-3968	15216	-16538	-206	139	61	-256	-1264	-16112	-16282	323	217	113	-1936	-4112	15824
-15240	-126	88	123	-2592	240	16640	-16055	173	324	115	-5264	-3952	14944	-16527	-204	139	66	-288	-1344	-16048	-16294	320	211	111	-1888	-4144	16016
-15242	-137	92	127	-2560	240	16640	-16058	176	318	116	-5232	-3936	15056	-16548	-209	139	71	-272	-1376	-16192	-16291	322	207	113	-1824	-4176	15824
-15228	-134	82	117	-2576	256	16656	-16071	165	318	102	-5152	-3984	15056	-16528	-214	138	67	-272	-1328	-16176	-16292	318	209	108	-1856	-4160	15920
-15225	-134	87	120	-2528	144	16704	-16082	167	321	114	-5248	-3968	15184	-16538	-207	129	65	-176	-1264	-16208	-16300	322	217	122	-1872	-4192	15952
-15222	-132	86	113	-2560	112	16672	-16061	172	325	113	-5280	-3936	15104	-16553	-210	143	71	-320	-1328	-16224	-16288	317	214	108	-1872	-4208	15872
-15219	-124	88	114	-2608	224	16656	-16047	171	327	107	-5136	-3968	15168	-16553	-205	143	65	-288	-1280	-16160	-16283	313	210	123	-1888	-4208	15936
-15209	-135	96	126	-2608	272	16752	-16071	170	324	115	-5200	-3920	15264	-16539	-211	136	65	-256	-1296	-16128	-16307	317	212	112	-1808	-4224	15936
-15212	-130	94	122	-2576	256	16656	-16081	168	314	108	-5216	-4000	15200	-16539	-210	135	65	-272	-1248	-16112	-16288	320	209	116	-1744	-4176	15904
-15225	-135	101	127	-2480	272	16640	-16052	171	320	119	-5136	-4064	15056	-16551	-212	132	65	-352	-1344	-16256	-16289	323	213	117	-1888	-4224	15872
-15216	-130	88	125	-2624	240	16576	-16069	178	323	108	-5136	-3920	15184	-16543	-202	136	63	-224	-1344	-16048	-16284	334	213	114	-1776	-4240	16016
-15210	-127	85	115	-2592	304	16480	-16079	170	321	111	-5184	-4048	15120	-16535	-210	137	64	-240	-1360	-16032	-16283	320	208	115	-1840	-4128	15984
-15222	-127	92	119	-2512	192	16672	-16063	170	323	109	-5200	-4096	15088	-16546	-208	142	65	-320	-1232	-16176	-16287	314	213	111	-1872	-4144	15744
-15240	-125	93	114	-2640	256	16640	-16045	166	324	116	-5184	-3952	15056	-16556	-208	143	66	-400	-1296	-16176	-16298	313	212	121	-1824	-4192	15824
-15233	-131	93	119	-2560	272	16640	-16084	172	324	102	-5184	-3984	14960	-16539	-212	142	69	-224	-1312	-16096	-16287	320	202	114	-1728	-4176	15952
-15234	-132	96	117	-2592	240	16752	-16059	173	318	116	-5168	-4032	15120	-16547	-206	131	70	-256	-1296	-16048	-16280	320	203	120	-1792	-4192	15904
-15224	-128	94	125	-2640	256	16656	-16057	170	328	116	-5200	-3952	15024	-16529	-209	121	69	-208	-1312	-16176	-16274	316	210	115	-1904	-4144	15824
-15241	-130	99	116	-2640	192	16640	-16076	161	329	119	-5168	-3936	14976	-16555	-208	138	67	-224	-1328	-16272	-16286	317	215	119	-1888	-4128	16048
-15218	-127	91	121	-2560	240	16768	-16062	164	316	108	-5248	-3936	15104	-16553	-199	133	67	-256	-1248	-16128	-16278	325	212	117	-1888	-4160	15856
-15229	-127	86	104	-2512	384	16544	-16059	168	312	108	-5200	-4064	15120	-16530	-210	138	71	-256	-1296	-16176	-16301	325	217	113	-1808	-4144	15952
-15225	-129	90	119	-2576	144	16640	-16040	170	313	115	-5152	-4032	15120	-16518	-210	149	71	-224	-1232	-16160	-16284	316	210	118	-1808	-4144	15872
-15237	-126	94	124	-2576	208	16640	-16066	165	328	116	-5200	-3904	15120	-16561	-209	142	65	-240	-1344	-16176	-16291	308	211	123	-1840	-4192	15872
-15227	-129	91	117	-2592	256	16560	-16064	172	313	117	-5120	-4016	14992	-16561	-204	144	65	-256	-1248	-16080	-16278	328	215	116	-1776	-4240	15936
-15227	-132	95	119	-2576	224	16640	-16073	162	332	105	-5216	-4032	15216	-16522	-201	143	71	-272	-1360	-16272	-16273	323	210	113	-1856	-4224	15936
-15242	-133	86	118	-2576	208	16608	-16066	164	320	108	-5216	-3920	15056	-16581	-210	144	75	-240	-1232	-16096	-16294	322	206	113	-1824	-4224	15872
-15231	-136	86	115	-2592	144	16528	-16052	175	325	112	-5168	-4000	14976	-16549	-210	132	73	-288	-1344	-16224	-16277	319	205	112	-1824	-4192	15888
-15235	-131	98	119	-2592	272	16608	-16070	167	318	114	-5184	-4000	15104	-16539	-207	142	66	-224	-1296	-16176	-16293	324	210	114	-1840	-4224	15872
-15226	-131	84	125	-2512	144	16656	-16059	169	312	115	-5216	-4048	14960	-16507	-208	136	70	-320	-1296	-16064	-16287	327	208	121	-1808	-4144	15840
-15229	-136	87	125	-2560	208	16640	-16061	172	319	113	-5168	-3936	15152	-16523	-211	137	72	-288	-1312	-16192	-16281	315	208	121	-1872	-4192	15856
-15218	-129	89	115	-2656	256	16464	-16076	168	325	116	-5264	-4000	15024	-16537	-205	135	63	-288	-1312	-16112	-16288	322	213	111	-1856	-4144	15968
-15232	-131	93	123	-2576	112	16672	-16072	175	310	111	-5184	-3952	15104	-16549	-211	141	65	-256	-1312	-16128	-16283	322	219	110	-1824	-4192	15984
-15222	-130	92	127	-2576	240	16640	-16079	163	318	108	-5120	-3952	15056	-16558	-212	130	68	-208	-1264	-16016	-16279	324	206	110	-1904	-4160	15984
-15236	-128	92	120	-2528	256	16544	-16070	163	322	108	-5168	-3808	15056	-16570	-213	134	66	-272	-1312	-16240	-16315	316	203	103	-1856	-4304	15952
-15214	-130	84	119	-2592	272	16752	-16051	165	324	110	-5168	-4032	15024	-16523	-209	137	77	-240	-1296	-16160	-16295	322	210	108	-1728	-4256	15776
-15237	-126	95	123	-2560	176	16672	-16058	170	323	116	-5200	-3920	15136	-16530	-209	140	65	-208	-1280	-16000	-16260	318	210	115	-1808	-4208	15888
-15243	-134	93	126	-2544	352	16608	-16048	173	330	104	-5184	-3936	15152	-16539	-210	135	70	-256	-1376	-16128	-16287	323	222	120	-1840	-4176	15920
-15232	-133	87	126	-2656	240	16656	-16066	171	324	110	-5216	-3856	15104	-16540	-210	135	63	-224	-1312	-16256	-16287	320	213	119	-1920	-4192	15936
-15219	-123	92	119	-2576	240	16704	-16089	168	306	114	-5248	-3952	15024	-16530	-211	140	62	-272	-1296	-16256	-16303	316	204	116	-1856	-4208	15984
-15237	-136	93	125	-2576	256	16608	-16056	170	309	110	-5216	-3984	15120	-16542	-203	132	65	-352	-1328	-16224	-16264	321	213	112	-1904	-4192	15904
-15232	-131	86	123	-2576	256	16736	-16056	166	325	107	-5168	-3920	15152	-16534	-202	130	65	-176	-1360	-16272	-16284	325	207	118	-1792	-4256	15920
-15231	-137	87	124	-2576	128	16640	-16075	171	311	115	-5136	-3952	15120	-16521	-212	136	65	-208	-1280	-16176	-16282	327	211	114	-1872	-4240	15952
-15235	-133	93	121	-2592	256	16656	-16055	173	310	113	-5168	-3936	15152	-16529	-211	135	66	-288	-1232	-16144	-16283	325	208	117	-1888	-4192	15936
-15218	-129	88	120	-2576	144	16656	-16061	173	324	114	-5280	-4000	15072	-16531	-213	133	69	-272	-1264	-16240	-16291	326	212	112	-1808	-4256	15936
-15230	-132	91	111	-2496	304	16576	-16084	162	329	110	-5120	-3904	15040	-16541	-208	140	67	-288	-1248	-16176	-16295	322	208	117	-1872	-4160	15872
-15227	-126	99	123	-2656	208	16720	-16068	174	322	115	-5184	-3952	15136	-16533	-206	140	61	-208	-1328	-16224	-16287	318	210	118	-1840	-4224	15856
-15244	-130	91	116	-2576	304	16640	-16074	166	318	110	-5216	-4032	15120	-16546	-210	131	68	-272	-1344	-16240	-16292	325	214	113	-1920	-4144	15952
-15212	-125	85	114	-2512	272	16704	-16056	167	325	110	-5184	-3968	15104	-16531	-205	136	66	-288	-1232	-16080	-16278	320	216	115	-1872	-4160	15904
-15218	-138	76	121	-2592	240	16576	-16063	165	314	116	-5232	-3952	15024	-16542	-208	138	68	-272	-1296	-16288	-16277	326	207	120	-1840	-4192	15968
-15210	-124	85	124	-2656	176	16640	-16056	164	315	114	-5152	-3904	15104	-16553	-208	136	68	-288	-1296	-16144	-16282	317	217	110	-1872	-4144	16080
-15207	-132	98	114	-2624	272	16640	-16071	162	316	111	-5184	-3952	15168	-16561	-208	131	57	-288	-1360	-16096	-16291	313	202	119	-1888	-4176	15952
-15216	-136	100	124	-2656	320	16720	-16071	165	313	111	-5184	-3872	15040	-16555	-207	132	65	-272	-1376	-16080	-16272	320	213	121	-1792	-4192	15792
-15229	-133	85	120	-2624	256	16640	-16060	163	323	109	-5200	-3952	15120	-16539	-216	142	65	-240	-1328	-16224	-16274	320	210	118	-1824	-4208	15856
-15261	-126	93	116	-2592	256	16656	-16081	173	314	114	-5216	-4000	15168	-16523	-214	149	60	-288	-1248	-16048	-16278	325	211	115	-1824	-4128	15952
-15237	-132	90	116	-2608	176	16720	-16080	167	314	111	-5232	-3984	15008	-16526	-210	139	63	-224	-1376	-16224	-16293	319	222	116	-1888	-4112	15920
-15235	-128	98	119	-2576	176	16544	-16086	169	312	113	-5280	-4112	15104	-16540	-211	132	62	-256	-1312	-16176	-16280	320	206	119	-1856	-4160	15648
-15189	-131	88	125	-2576	208	16640	-16074	169	317	111	-5200	-3936	15184	-16533	-211	135	69	-224	-1312	-16256	-16270	316	208	112	-1856	-4192	15888
-15204	-131	98	118	-2576	208	16688	-16084	168	317	116	-5216	-4000	15104	-16515	-208	130	69	-208	-1328	-16144	-16287	320	212	119	-1840	-4080	15888
-15230	-134	92	119	-2576	144	16576	-16044	167	321	119	-5184	-3984	15040	-16533	-210	143	65	-288	-1360	-16112	-16295	322	210	110	-1840	-4288	15904
-15233	-126	93	114	-2560	272	16672	-16071	172	324	114	-5120	-3968	15104	-16523	-216	150	73	-192	-1248	-16160	-16292	319	205	122	-1744	-4128	15888
-15229	-131	89	118	-2640	192	16640	-16071	168	316	107	-5216	-3872	15104	-16562	-212	140	74	-208	-1280	-16224	-16294	321	212	107	-1872	-4256	15936
-15229	-132	88	118	-2576	240	16656	-16059	167	310	111	-5184	-4016	15136	-16551	-208	138	67	-240	-1408	-16160	-16291	323	209	118	-1888	-4224	15888
-15211	-132	86	120	-2512	240	16640	-16056	165	327	114	-5232	-3984	15152	-16527	-205	134	61	-176	-1216	-16208	-16299	327	214	117	-1888	-4272	16000
-15203	-128	92	116	-2576	192	16592	-16061	172	318	115	-5216	-3968	15104	-16515	-213	135	69	-208	-1296	-16256	-16282	325	210	114	-1856	-4160	15952
-15220	-123	99	127	-2560	256	16608	-16070	166	318	112	-5216	-4000	14992	-16541	-210	143	68	-208	-1280	-16240	-16288	322	209	118	-1824	-4256	15808
-15228	-134	94	122	-2576	256	16688	-16049	177	322	109	-5120	-3984	15168	-16519	-212	136	71	-288	-1344	-16064	-16284	321	206	115	-1824	-4224	15936
-15215	-131	93	121	-2528	304	16640	-16048	174	329	117	-5184	-3968	15104	-16548	-210	136	68	-288	-1328	-16176	-16294	322	216	116	-1824	-4176	15888
-15235	-129	89	107	-2544	272	16720	-16071	172	321	119	-5232	-4048	15248	-16550	-209	141	67	-272	-1280	-16128	-16295	326	208	117	-1888	-4160	15968
-15214	-135	96	117	-2592	272	16624	-16048	177	315	119	-5296	-3952	15184	-16539	-213	135	66	-80	-1312	-16208	-16301	320	214	120	-1872	-4160	15936
-15241	-133	93	119	-2560	272	16640	-16081	162	317	106	-5184	-3936	15184	-16533	-211	133	69	-256	-1280	-16192	-16285	313	212	119	-1872	-4064	15952
-15223	-132	87	121	-2576	176	16640	-16074	173	322	112	-5296	-3968	15120	-16529	-208	132	73	-256	-1248	-16112	-16289	324	203	122	-1920	-4176	15904
-15224	-130	87	114	-2656	240	16672	-16047	176	317	112	-5152	-3952	14960	-16529	-216	141	64	-320	-1264	-16224	-16290	325	208	116	-1808	-4176	15872
-15220	-132	86	119	-2560	192	16544	-16057	173	315	118	-5216	-3920	15200	-16537	-209	141	68	-240	-1344	-16128	-16285	315	213	109	-1888	-4160	16128
-15230	-132	97	129	-2592	160	16592	-16062	177	319	117	-5184	-3920	15104	-16549	-216	130	64	-128	-1296	-16192	-16287	323	209	114	-1840	-4080	15936
-15207	-134	88	111	-2560	192	16640	-16046	167	324	113	-5120	-3984	15056	-16542	-218	127	64	-224	-1328	-16240	-16288	329	219	117	-1904	-4160	15872
-15206	-129	92	119	-2544	272	16656	-16068	169	327	112	-5152	-3968	15120	-16512	-209	142	63	-240	-1280	-16080	-16295	320	209	115	-1856	-4160	16000
-15234	-134	96	121	-2576	288	16656	-16067	165	316	115	-5200	-3984	15120	-16499	-205	145	62	-224	-1312	-16160	-16285	320	215	121	-1936	-4128	15856
-15236	-136	88	125	-2576	288	16608	-16071	164	326	110	-5280	-3952	15056	-16528	-213	134	59	-288	-1296	-16128	-16289	324	207	119	-1824	-4160	15984
-15249	-135	96	115	-2544	224	16624	-16046	169	323	117	-5216	-4000	15152	-16545	-206	142	74	-304	-1296	-16176	-16271	322	206	115	-1824	-4224	15872
-15228	-132	89	112	-2560	304	16640	-16091	170	312	109	-5168	-3920	15152	-16560	-212	140	69	-272	-1312	-16144	-16299	319	209	123	-1872	-4128	15920
-15225	-129	92	117	-2608	304	16784	-16050	171	310	116	-5184	-3936	15184	-16535	-211	143	63	-208	-1296	-16080	-16294	325	212	112	-1840	-4160	15952
-15231	-133	94	122	-2496	224	16640	-16067	164	305	116	-5136	-3952	15040	-16567	-217	140	70	-224	-1328	-16224	-16291	327	207	116	-1760	-4128	15920
-15249	-131	92	127	-2560	160	16528	-16079	171	321	114	-5248	-3920	15136	-16521	-206	146	65	-240	-1312	-16208	-16294	320	209	120	-1824	-4176	15888
-15253	-135	93	117	-2592	256	16640	-16077	162	317	107	-5200	-3936	15168	-16536	-212	145	62	-272	-1264	-16208	-16276	322	218	114	-1744	-4208	15872
-15224	-124	93	112	-2576	224	16656	-16079	166	320	108	-5200	-4064	15008	-16540	-218	138	65	-320	-1184	-16032	-16278	327	214	124	-1808	-4160	16000
-15213	-131	96	116	-2576	256	16576	-16081	171	321	110	-5184	-3968	15168	-16543	-212	131	64	-320	-1264	-16128	-16271	321	207	121	-1920	-4160	15936
-15216	-132	94	120	-2592	144	16656	-16050	169	317	116	-5200	-3936	15200	-16544	-214	135	73	-192	-1312	-16144	-16278	317	205	121	-1936	-4176	15984
-15230	-133	92	117	-2672	240	16592	-16087	173	318	111	-5248	-4048	15136	-16557	-211	141	68	-288	-1264	-16304	-16285	323	220	115	-1808	-4160	15936
-15215	-124	96	118	-2608	176	16640	-16068	168	316	112	-5136	-4064	15040	-16540	-209	138	73	-272	-1248	-16176	-16302	322	209	121	-1904	-4208	15824
-15218	-126	89	127	-2640	256	16576	-16077	165	309	112	-5168	-3904	15024	-16537	-217	132	61	-256	-1216	-16304	-16305	317	210	116	-1904	-4112	15904
-15237	-130	93	119	-2528	240	16592	-16065	164	321	114	-5184	-3936	15120	-16533	-206	132	60	-176	-1200	-16192	-16282	319	210	121	-1872	-4192	15968
-15222	-130	84	125	-2576	256	16640	-16085	171	317	112	-5200	-3936	15056	-16532	-221	137	63	-304	-1296	-16080	-16292	322	211	114	-1760	-4128	15952
-15232	-134	92	122	-2544	320	16640	-16083	174	324	109	-5248	-4016	15024	-16546	-210	136	68	-256	-1280	-16224	-16295	324	215	118	-1840	-4112	15760
-15251	-132	89	119	-2656	256	16704	-16062	166	319	110	-5168	-3920	15120	-16567	-215	133	77	-272	-1360	-16144	-16304	322	203	116	-1888	-4192	15856
-15232	-136	92	124	-2656	240	16736	-16072	168	312	117	-5184	-3904	15200	-16505	-209	141	69	-272	-1376	-16128	-16277	314	213	118	-1824	-4176	15856
-15231	-126	87	118	-2592	288	16720	-16038	169	311	115	-5232	-3952	15200	-16527	-219	137	65	-288	-1328	-16128	-16292	324	215	118	-1808	-4144	15888
-15232	-137	90	121	-2544	256	16640	-16047	167	326	110	-5200	-4000	15104	-16518	-209	135	67	-304	-1328	-16192	-16295	319	207	114	-1808	-4176	15856
-15231	-133	87	120	-2608	240	16656	-16067	166	318	110	-5152	-3888	15072	-16519	-212	142	76	-224	-1264	-16288	-16285	323	213	120	-1872	-4128	15968
-15222	-138	91	125	-2576	256	16560	-16053	175	316	114	-5136	-3904	15120	-16546	-207	134	69	-208	-1216	-16240	-16289	314	210	115	-1808	-4192	15856
-15210	-128	93	117	-2608	144	16656	-16044	171	316	122	-5200	-4000	15024	-16525	-212	144	62	-240	-1344	-16176	-16294	316	213	122	-1856	-4160	15872
-15209	-134	91	128	-2640	160	16656	-16064	173	329	119	-5216	-4064	15088	-16567	-207	139	66	-368	-1232	-16208	-16284	318	210	121	-1856	-4240	15952
-15229	-131	87	121	-2576	256	16656	-16092	174	306	113	-5216	-3936	15040	-16545	-210	142	63	-240	-1232	-16176	-16297	323	210	113	-1840	-4144	15920
-15230	-125	94	116	-2592	320	16688	-16072	171	312	111	-5200	-3968	15136	-16545	-211	147	72	-208	-1296	-16144	-16289	313	208	115	-1904	-4128	15984
-15227	-128	83	124	-2560	176	16688	-16067	179	309	116	-5152	-3936	15024	-16545	-217	137	68	-224	-1360	-16144	-16286	314	209	113	-1744	-4208	15792
-15219	-128	91	122	-2608	224	16640	-16054	169	322	117	-5200	-4048	15136	-16533	-208	145	64	-224	-1280	-16176	-16273	320	207	117	-1824	-4176	16000
-15220	-133	91	134	-2576	176	16544	-16053	167	324	116	-5232	-3968	15056	-16539	-208	137	68	-272	-1296	-16080	-16286	317	211	118	-1840	-4272	15872
-15198	-135	82	124	-2512	208	16672	-16050	175	310	114	-5200	-3968	15120	-16555	-214	148	70	-208	-1328	-16192	-16289	317	209	116	-1760	-4160	15920
-15221	-127	87	113	-2496	160	16640	-16067	169	315	106	-5200	-4064	15056	-16552	-208	136	67	-208	-1232	-16176	-16275	322	213	113	-1888	-4176	15792
-15217	-126	96	116	-2560	320	16640	-16072	161	315	112	-5152	-3936	15232	-16504	-209	138	71	-256	-1440	-16112	-16297	323	213	111	-1728	-4208	15984
-15226	-128	93	115	-2592	304	16656	-16088	159	308	112	-5168	-3968	15120	-16554	-204	132	67	-224	-1248	-16240	-16282	319	205	110	-1824	-4208	15952
-15236	-135	96	122	-2576	224	16656	-16055	166	323	123	-5168	-3968	15184	-16558	-208	139	62	-192	-1312	-16080	-16299	321	209	117	-1888	-4240	15888
-15206	-133	86	114	-2576	224	16560	-16065	164	309	109	-5184	-3952	15072	-16555	-211	133	60	-176	-1296	-16160	-16295	323	209	114	-1808	-4144	15824
-15247	-122	92	111	-2544	256	16640	-16057	175	318	111	-5152	-4048	15184	-16513	-205	144	73	-224	-1312	-16224	-16293	320	215	117	-1872	-4128	15952
-15227	-138	91	118	-2576	224	16560	-16052	173	311	114	-5216	-3936	15184	-16504	-221	140	63	-240	-1296	-16016	-16282	322	218	120	-1840	-4144	15952
-15231	-131	94	124	-2640	176	16640	-16075	169	312	111	-5136	-3984	15040	-16535	-219	143	72	-272	-1312	-16224	-16274	323	212	123	-1728	-4128	16016
-15230	-135	90	121	-2656	176	16640	-16067	176	318	118	-5184	-4000	15168	-16529	-207	144	65	-240	-1248	-16112	-16272	323	209	114	-1792	-4224	16000
-15233	-133	89	117	-2560	256	16576	-16049	173	310	103	-5136	-3936	15168	-16506	-204	131	65	-320	-1312	-16112	-16279	322	218	115	-1904	-4224	15824
-15252	-135	85	112	-2544	304	16704	-16073	169	307	120	-5136	-4032	15104	-16534	-207	138	60	-240	-1248	-16144	-16300	325	213	126	-1952	-4240	15984
-15226	-133	91	121	-2576	192	16656	-16064	167	311	110	-5136	-4016	15168	-16547	-204	147	67	-304	-1328	-16192	-16296	325	211	115	-1840	-4176	15872
-15207	-132	90	122	-2608	192	16640	-16039	167	313	114	-5200	-4064	15184	-16537	-213	134	64	-288	-1344	-16144	-16290	326	203	118	-1904	-4096	15760
-15229	-130	93	121	-2592	144	16624	-16054	177	309	112	-5232	-4064	15120	-16540	-208	132	71	-208	-1360	-16176	-16284	323	212	119	-1824	-4128	15904
-15233	-125	101	111	-2576	304	16496	-16049	164	301	109	-5104	-3904	15120	-16532	-211	144	65	-288	-1312	-16128	-16287	327	205	115	-1760	-4192	15984
-15230	-128	86	125	-2576	224	16640	-16062	167	309	107	-5232	-3952	15136	-16530	-207	141	73	-288	-1232	-16160	-16297	325	213	116	-1904	-4176	15920
-15241	-129	87	121	-2528	160	16656	-16067	166	319	114	-5200	-3968	15008	-16539	-214	143	66	-304	-1344	-16080	-16306	322	209	115	-1856	-4256	15920
-15238	-130	87	117	-2608	224	16656	-16061	171	308	120	-5200	-3920	15184	-16542	-206	139	67	-224	-1424	-16064	-16290	318	213	119	-1936	-4064	15920
-15227	-132	93	129	-2592	272	16720	-16041	176	312	111	-5232	-4016	15120	-16537	-214	136	66	-240	-1344	-16128	-16298	326	213	118	-1856	-4176	15984
-15234	-134	87	119	-2608	192	16672	-16060	168	321	110	-5136	-3984	15120	-16504	-214	137	72	-288	-1344	-16144	-16295	322	206	118	-1840	-4192	15936
-15223	-138	94	118	-2560	288	16640	-16083	171	315	113	-5248	-3952	15120	-16531	-206	143	69	-256	-1296	-16176	-16291	323	204	114	-1904	-4176	15808
-15218	-128	90	118	-2576	176	16688	-16058	173	312	110	-5152	-3968	15088	-16525	-205	132	69	-256	-1264	-16176	-16291	318	205	117	-1760	-4192	15952
-15218	-128	96	115	-2592	240	16640	-16069	175	315	106	-5216	-4032	15008	-16552	-204	141	75	-240	-1328	-16176	-16291	319	209	108	-1840	-4192	15920
-15226	-137	88	120	-2528	176	16704	-16083	161	326	114	-5184	-3936	15152	-16525	-202	136	62	-288	-1296	-16112	-16296	326	204	113	-1840	-4096	15872
-15256	-131	87	111	-2592	176	16640	-16072	173	303	113	-5232	-3968	15168	-16533	-211	140	65	-320	-1312	-16208	-16285	314	210	118	-1856	-4208	15968
-15242	-136	91	120	-2560	208	16592	-16067	167	301	115	-5136	-4048	15168	-16538	-213	132	59	-272	-1456	-16128	-16285	319	209	112	-1904	-4144	15936
-15229	-133	92	124	-2528	176	16640	-16065	169	317	122	-5296	-3904	15168	-16533	-209	137	67	-192	-1328	-16112	-16296	318	217	117	-1856	-4176	15936
-15237	-134	89	118	-2576	208	16592	-16072	163	309	112	-5168	-4000	15136	-16546	-208	131	67	-192	-1344	-16160	-16308	316	214	115	-1888	-4192	15952
-15238	-135	96	124	-2672	256	16576	-16073	161	316	111	-5168	-3936	15104	-16532	-209	139	67	-304	-1264	-16032	-16295	325	211	116	-1840	-4208	15920
-15240	-124	90	124	-2560	224	16640	-16045	167	308	112	-5216	-3936	15056	-16546	-210	142	70	-288	-1328	-16144	-16296	334	217	111	-1840	-4208	15936
-15220	-134	93	125	-2592	256	16688	-16051	171	324	108	-5136	-3984	15152	-16559	-210	143	62	-176	-1280	-16256	-16290	313	218	120	-1856	-4192	15952
-15212	-132	96	121	-2528	256	16656	-16052	163	313	112	-5136	-3952	15120	-16538	-210	136	68	-240	-1296	-16064	-16285	320	212	114	-1856	-4144	15888
-15208	-127	91	117	-2560	240	16720	-16053	169	314	117	-5200	-4064	15168	-16550	-216	137	62	-176	-1360	-16208	-16292	315	209	119	-1888	-4096	15936
-15230	-128	92	124	-2528	304	16560	-16074	162	315	117	-5184	-3920	15184	-16523	-215	130	59	-208	-1392	-16160	-16292	322	209	113	-1856	-4208	15808
-15228	-132	93	124	-2592	256	16656	-16077	175	308	119	-5216	-3968	14976	-16530	-211	129	67	-304	-1328	-16112	-16284	329	208	121	-1840	-4224	15824
-15219	-138	89	120	-2576	240	16576	-16051	164	302	102	-5152	-4080	15120	-16532	-207	125	61	-304	-1312	-16112	-16302	322	211	121	-1824	-4192	15872
-15206	-130	95	114	-2480	320	16640	-16058	168	315	111	-5216	-3904	15088	-16522	-212	131	61	-320	-1264	-16128	-16296	320	212	113	-1856	-4208	16000
-15239	-138	89	124	-2576	240	16480	-16053	167	308	119	-5216	-4064	15168	-16531	-212	136	70	-304	-1216	-16128	-16288	317	207	118	-1824	-4288	15952
-15223	-127	95	119	-2608	208	16608	-16067	162	322	100	-5120	-3968	15120	-16526	-215	142	62	-240	-1360	-16128	-16282	315	214	114	-1760	-4176	15888
-15217	-124	88	115	-2560	224	16576	-16062	164	313	111	-5088	-3968	15120	-16547	-214	144	61	-256	-1248	-16208	-16311	320	209	109	-1840	-4208	15952
-15249	-134	94	125	-2560	192	16496	-16051	170	313	110	-5200	-3936	15056	-16524	-211	131	63	-288	-1312	-16112	-16300	318	218	112	-1904	-4192	15856
-15222	-127	87	121	-2496	240	16656	-16080	167	317	108	-5168	-4032	15168	-16533	-214	136	73	-160	-1296	-16240	-16296	328	205	114	-1840	-4144	15968
-15243	-131	88	120	-2592	208	16544	-16073	170	331	116	-5216	-4032	15120	-16511	-209	142	70	-304	-1328	-16256	-16279	319	209	120	-1760	-4208	15904
-15240	-125	95	124	-2592	224	16640	-16080	171	317	112	-5216	-3984	15136	-16535	-212	138	61	-224	-1376	-16192	-16286	322	214	116	-1904	-4144	15888
-15214	-130	94	125	-2528	160	16704	-16047	169	325	119	-5264	-4016	15152	-16545	-203	138	62	-224	-1312	-16144	-16292	317	208	110	-1840	-4128	15936
-15215	-132	96	117	-2576	272	16656	-16068	169	324	114	-5136	-4000	15184	-16549	-208	137	66	-208	-1328	-16176	-16291	324	216	110	-1920	-4112	15936
-15229	-132	97	128	-2608	272	16640	-16057	165	325	111	-5232	-3936	15104	-16513	-210	150	59	-128	-1296	-16256	-16280	321	212	110	-1792	-4240	15952
-15229	-132	87	123	-2560	256	16640	-16047	173	320	113	-5248	-3936	15248	-16529	-208	138	67	-304	-1360	-16224	-16285	320	211	119	-1840	-4208	15872
-15235	-136	94	122	-2560	240	16640	-16060	163	317	107	-5216	-4032	15056	-16510	-213	140	65	-256	-1280	-16160	-16282	322	209	115	-1904	-4304	15968
-15233	-131	89	117	-2528	336	16528	-16075	175	315	114	-5120	-4032	15104	-16522	-210	146	67	-240	-1360	-16144	-16296	315	211	114	-1920	-4288	15824
-15227	-133	98	123	-2608	192	16560	-16072	178	318	115	-5184	-3968	15104	-16528	-206	144	66	-224	-1312	-16144	-16290	320	214	117	-1760	-4160	15904
-15219	-129	86	116	-2544	304	16560	-16061	174	308	114	-5136	-3952	15232	-16528	-206	142	65	-288	-1216	-16272	-16283	314	208	118	-1776	-4208	15776
-15225	-134	91	126	-2544	192	16784	-16053	171	331	119	-5184	-3968	15056	-16495	-211	145	70	-272	-1296	-16288	-16287	320	207	111	-1824	-4160	16000
-15221	-136	83	118	-2576	128	16672	-16066	167	330	115	-5152	-3968	15120	-16522	-217	134	73	-272	-1296	-16160	-16305	321	205	121	-1872	-4176	15920
-15219	-131	99	118	-2576	208	16720	-16054	172	310	106	-5168	-3984	15184	-16544	-217	129	63	-320	-1280	-16176	-16285	320	212	123	-1904	-4240	15888
-15209	-133	93	116	-2576	192	16656	-16074	172	314	114	-5168	-4032	15040	-16534	-210	145	66	-256	-1344	-16208	-16287	324	216	112	-1872	-4240	15904
-15205	-133	88	116	-2576	272	16576	-16068	172	322	116	-5184	-3888	15104	-16551	-210	139	66	-272	-1312	-16144	-16290	322	208	119	-1792	-4208	15808
-15225	-127	87	132	-2592	224	16592	-16082	170	313	108	-5216	-4016	15168	-16551	-209	137	67	-240	-1312	-16112	-16296	315	221	123	-1792	-4112	15920
-15225	-133	89	119	-2576	208	16640	-16064	163	311	118	-5152	-3968	15024	-16536	-207	144	60	-256	-1280	-16256	-16295	324	209	112	-1840	-4144	15872
-15220	-136	96	121	-2656	208	16688	-16065	168	318	116	-5136	-4064	15104	-16556	-210	133	80	-272	-1392	-16176	-16297	319	215	115	-1904	-4192	15936
-15213	-132	91	121	-2576	192	16704	-16081	170	312	114	-5120	-3936	15040	-16533	-213	141	68	-304	-1312	-16208	-16286	325	202	111	-1808	-4208	15744
-15229	-125	97	123	-2576	256	16720	-16048	171	315	113	-5216	-3968	15248	-16532	-205	146	64	-192	-1264	-16160	-16272	323	214	113	-1824	-4288	16080
-15238	-127	88	119	-2544	192	16576	-16054	167	305	107	-5120	-3904	15088	-16532	-210	145	61	-304	-1328	-16256	-16281	316	210	120	-1888	-4192	15888
-15211	-135	86	127	-2576	256	16640	-16052	172	325	111	-5216	-3984	15216	-16538	-207	146	61	-240	-1248	-16224	-16284	321	204	116	-1920	-4080	15888
-15219	-133	90	121	-2592	304	16640	-16072	167	322	124	-5056	-3888	15056	-16536	-208	137	69	-240	-1296	-16160	-16291	325	214	113	-1792	-4192	16000
-15211	-136	88	118	-2560	192	16672	-16084	167	305	117	-5200	-4000	15152	-16532	-205	139	65	-304	-1280	-16160	-16277	319	211	115	-1840	-4240	15856
-15218	-132	95	120	-2576	192	16656	-16064	170	314	108	-5152	-3984	15024	-16526	-209	143	67	-176	-1312	-16192	-16290	324	213	110	-1872	-4160	16000
-15233	-131	87	122	-2592	352	16640	-16052	170	324	109	-5088	-3984	15120	-16529	-211	137	64	-304	-1232	-16192	-16285	317	211	114	-1840	-4128	15984
-15233	-136	96	121	-2608	176	16640	-16069	162	321	121	-5200	-3968	15152	-16520	-214	135	66	-400	-1264	-16048	-16302	316	206	115	-1728	-4240	15872
-15225	-132	96	123	-2640	208	16688	-16078	168	320	114	-5232	-4000	15168	-16546	-215	135	69	-240	-1360	-16304	-16304	322	220	117	-1824	-4192	15888
-15230	-131	90	119	-2624	256	16720	-16067	169	315	112	-5232	-3952	15040	-16566	-206	140	59	-208	-1296	-16064	-16292	322	218	112	-1952	-4208	15952
-15230	-132	89	122	-2528	272	16656	-16049	175	322	113	-5248	-4000	15072	-16540	-216	136	64	-224	-1328	-16208	-16279	320	207	116	-1856	-4128	16016
-15212	-127	95	121	-2608	144	16528	-16047	172	328	112	-5168	-4016	15120	-16553	-208	140	66	-144	-1232	-16144	-16305	324	208	109	-1744	-4192	15840
-15241	-132	90	111	-2576	304	16448	-16071	171	329	109	-5168	-3968	15040	-16570	-210	130	59	-368	-1312	-16192	-16298	323	211	112	-1824	-4160	15824
-15209	-131	92	114	-2624	224	16672	-16064	173	317	109	-5200	-4032	15024	-16521	-206	137	60	-208	-1248	-15984	-16295	317	214	113	-1888	-4144	15920
-15236	-134	92	117	-2592	256	16576	-16034	168	318	115	-5184	-4000	15056	-16551	-210	137	74	-240	-1312	-16144	-16297	313	206	116	-1808	-4144	15904
-15219	-135	90	122	-2528	352	16640	-16070	171	316	117	-5136	-4064	15184	-16499	-206	144	69	-336	-1312	-16208	-16291	324	201	114	-1856	-4224	15936
-15240	-125	91	110	-2576	256	16576	-16063	170	319	110	-5152	-4000	15120	-16540	-208	141	59	-176	-1312	-16256	-16299	325	207	112	-1808	-4160	15824
-15229	-133	98	114	-2576	224	16592	-16046	172	326	113	-5152	-3920	15072	-16543	-212	139	67	-208	-1312	-16112	-16298	318	214	103	-1856	-4240	15984
-15246	-128	94	120	-2608	176	16768	-16056	175	317	110	-5184	-3920	15072	-16531	-214	144	68	-304	-1312	-16208	-16301	314	207	112	-1808	-4112	16016
-15234	-136	90	125	-2576	160	16736	-16074	172	320	110	-5200	-4016	15120	-16537	-212	147	73	-304	-1200	-16128	-16299	324	221	115	-2000	-4192	15952
-15221	-136	87	125	-2544	288	16656	-16063	170	328	124	-5184	-3936	15024	-16527	-216	136	70	-272	-1312	-16096	-16283	316	216	112	-1776	-4112	15872
-15220	-141	92	123	-2544	352	16688	-16060	167	315	107	-5152	-3920	15120	-16539	-209	139	68	-272	-1376	-16272	-16302	320	210	115	-1824	-4240	15888
-15219	-132	87	123	-2544	320	16576	-16067	166	323	120	-5200	-3984	15120	-16490	-205	142	63	-240	-1312	-16112	-16302	320	201	118	-1792	-4288	15968
-15219	-128	91	119	-2624	272	16640	-16070	176	314	116	-5136	-3968	15072	-16552	-210	141	64	-288	-1232	-16160	-16294	327	212	112	-1872	-4256	15888
-15205	-130	97	115	-2512	256	16544	-16049	174	324	109	-5136	-3984	15136	-16541	-209	141	73	-272	-1232	-16208	-16283	315	207	116	-1808	-4224	16000
-15227	-130	89	115	-2560	256	16560	-16072	164	325	115	-5264	-3936	15200	-16549	-215	142	74	-320	-1296	-16240	-16290	322	210	120	-1760	-4224	15984
-15259	-136	91	119	-2576	160	16704	-16061	167	313	111	-5232	-4000	15024	-16521	-210	135	62	-288	-1328	-16128	-16293	322	212	110	-1856	-4368	15792
-15239	-138	91	115	-2432	224	16640	-16060	170	320	113	-5200	-4032	15216	-16581	-205	144	71	-208	-1280	-16096	-16286	317	218	110	-1792	-4144	16048
-15221	-130	96	118	-2640	288	16592	-16068	167	321	124	-5104	-3920	15120	-16519	-212	138	69	-176	-1312	-16176	-16296	317	208	109	-1840	-4208	15920
-15237	-131	89	115	-2592	256	16640	-16084	164	318	108	-5152	-4032	15184	-16561	-213	143	71	-320	-1328	-16144	-16296	322	216	120	-1888	-4192	15888
-15219	-126	88	124	-2528	272	16560	-16076	172	318	109	-5216	-4000	15104	-16542	-217	140	72	-224	-1296	-16160	-16284	330	202	110	-1792	-4160	15888
-15238	-132	89	113	-2448	160	16592	-16062	177	312	113	-5120	-3936	15184	-16538	-209	138	65	-256	-1296	-16240	-16280	323	209	116	-1840	-4128	15936
-15233	-132	89	118	-2512	128	16656	-16058	162	326	107	-5232	-3952	15088	-16542	-212	136	65	-224	-1280	-16112	-16300	316	208	112	-1808	-4176	15856
-15246	-132	94	117	-2592	256	16656	-16066	175	333	119	-5152	-3888	15088	-16536	-210	147	67	-192	-1344	-16256	-16292	309	214	107	-1808	-4160	15920
-15237	-128	88	125	-2608	176	16544	-16044	168	323	113	-5168	-4016	15152	-16539	-201	134	71	-272	-1344	-16112	-16282	322	209	121	-1872	-4256	15968
-15228	-131	85	121	-2560	208	16704	-16074	162	326	118	-5200	-3968	15104	-16541	-204	139	70	-208	-1296	-16160	-16282	319	208	120	-1888	-4208	15888
-15224	-130	85	111	-2608	208	16640	-16057	171	311	113	-5216	-3984	15232	-16527	-205	142	71	-208	-1344	-16304	-16301	313	207	117	-1856	-4176	15952
-15226	-127	91	117	-2656	256	16704	-16077	176	323	113	-5232	-3936	15056	-16526	-212	141	71	-144	-1360	-16176	-16304	314	212	120	-1824	-4192	15872
-15230	-126	88	118	-2640	256	16640	-16088	173	324	113	-5184	-3984	15008	-16553	-206	140	68	-224	-1296	-16128	-16304	315	212	113	-1840	-4144	15904
-15235	-128	89	119	-2624	320	16720	-16086	168	320	116	-5184	-3968	15168	-16553	-209	134	75	-224	-1408	-16192	-16281	329	213	112	-1824	-4112	15760
-15217	-129	89	120	-2608	352	16720	-16082	169	321	115	-5200	-4032	14992	-16542	-209	139	67	-208	-1392	-16176	-16297	320	212	119	-1936	-4208	15904
-15242	-134	91	123	-2592	144	16656	-16091	169	322	111	-5216	-3904	15184	-16513	-205	138	65	-256	-1344	-16112	-16291	320	206	113	-1840	-4096	15808
-15246	-128	93	108	-2656	272	16736	-16065	170	314	113	-5104	-3936	15120	-16539	-203	141	59	-304	-1248	-16144	-16283	322	215	115	-1824	-4128	15792
-15228	-125	91	123	-2512	160	16528	-16082	174	314	120	-5200	-3968	15120	-16529	-204	142	69	-240	-1344	-16304	-16299	316	213	110	-1808	-4096	16000
-15232	-126	88	123	-2608	128	16560	-16069	170	311	112	-5184	-4048	15120	-16529	-209	137	63	-256	-1280	-16144	-16276	316	209	114	-1936	-4112	15840
-15233	-128	94	117	-2544	176	16560	-16098	169	313	113	-5264	-3984	15056	-16515	-205	133	68	-224	-1312	-16256	-16296	326	210	121	-1808	-4192	15824
-15223	-122	95	118	-2544	192	16544	-16053	174	321	112	-5168	-3968	15184	-16533	-205	134	70	-288	-1328	-16272	-16283	315	215	117	-1808	-4192	15936
-15223	-126	92	116	-2576	160	16688	-16069	175	337	118	-5152	-3984	15184	-16560	-215	144	64	-288	-1296	-16208	-16289	321	211	124	-1808	-4208	15872
-15234	-128	88	120	-2592	192	16656	-16054	170	314	115	-5168	-4000	15136	-16543	-209	141	66	-160	-1232	-16240	-16287	323	213	122	-1776	-4112	16000
-15221	-140	96	119	-2496	240	16640	-16048	167	321	114	-5248	-3872	15120	-16512	-200	137	62	-240	-1328	-16224	-16288	307	212	116	-1840	-4176	15872
-15225	-134	86	115	-2576	160	16592	-16044	170	311	114	-5152	-4000	15184	-16547	-200	135	71	-336	-1344	-16144	-16282	307	215	114	-1824	-4144	15888
-15207	-127	91	112	-2544	128	16640	-16065	166	324	110	-5184	-3920	15072	-16540	-203	136	66	-240	-1392	-16128	-16286	324	213	115	-1792	-4128	15920
-15220	-131	93	115	-2592	240	16560	-16061	179	335	108	-5152	-3952	15184	-16551	-212	141	69	-224	-1312	-16208	-16288	310	217	117	-1936	-4192	15888
-15211	-136	86	127	-2576	208	16624	-16050	167	333	112	-5184	-3920	15200	-16544	-213	140	71	-256	-1264	-16144	-16268	322	209	120	-1840	-4064	15888
-15245	-130	102	126	-2576	128	16704	-16071	166	330	115	-5184	-3984	15120	-16514	-207	144	67	-320	-1280	-16176	-16269	318	213	116	-1776	-4128	15888
-15231	-136	82	120	-2528	256	16704	-16057	166	317	112	-5104	-3952	15056	-16534	-209	145	66	-240	-1248	-16224	-16291	322	212	114	-1840	-4192	16032
-15221	-133	93	117	-2592	192	16560	-16074	166	314	114	-5184	-3984	15072	-16518	-205	145	60	-272	-1312	-16128	-16300	321	212	118	-1856	-4224	15856
-15239	-137	93	114	-2576	176	16640	-16072	166	317	115	-5104	-3952	15104	-16529	-210	134	64	-240	-1312	-16192	-16295	323	207	114	-1856	-4224	15888
-15226	-133	92	119	-2624	336	16560	-16074	167	320	112	-5184	-4000	15120	-16534	-211	134	72	-240	-1296	-16192	-16296	311	211	111	-1872	-4176	15888
-15220	-140	89	123	-2608	208	16640	-16055	166	323	109	-5232	-4080	15152	-16551	-210	133	69	-240	-1312	-16256	-16293	318	212	117	-1872	-4256	15968
-15241	-134	85	120	-2608	256	16496	-16040	171	308	111	-5200	-3968	15104	-16561	-208	138	63	-320	-1328	-16144	-16295	318	211	111	-1904	-4176	15952
-15238	-133	89	123	-2512	192	16592	-16063	168	321	109	-5296	-4080	15040	-16549	-212	135	72	-288	-1296	-16208	-16277	323	204	113	-1872	-4208	15920
-15215	-134	92	124	-2608	160	16560	-16059	166	315	109	-5216	-3936	15104	-16517	-215	141	69	-256	-1280	-16080	-16297	317	216	122	-1872	-4208	15952
-15223	-132	88	115	-2592	176	16464	-16068	167	311	114	-5200	-4000	15024	-16510	-210	129	69	-176	-1312	-16208	-16290	322	207	121	-1792	-4144	15952
-15220	-133	90	118	-2576	208	16608	-16068	176	313	109	-5184	-4000	15184	-16531	-207	137	61	-224	-1232	-16176	-16296	323	208	120	-1872	-4160	15840
-15227	-137	91	120	-2640	288	16656	-16073	172	318	118	-5136	-4000	15056	-16552	-204	133	71	-224	-1216	-16096	-16291	321	206	117	-1872	-4176	15872
-15223	-131	88	115	-2464	256	16640	-16092	178	310	115	-5200	-3984	15152	-16551	-209	139	66	-240	-1328	-16192	-16286	325	211	115	-1840	-4192	15920
-15216	-130	90	122	-2528	224	16592	-16079	169	325	107	-5200	-3936	15104	-16540	-206	134	69	-192	-1296	-16144	-16292	319	204	115	-1872	-4112	15904
-15227	-131	98	127	-2624	96	16656	-16098	168	310	111	-5152	-4064	14928	-16528	-214	139	71	-176	-1296	-16096	-16307	321	217	120	-1856	-4272	15904
-15234	-130	85	121	-2544	256	16640	-16073	171	322	118	-5216	-4000	15056	-16548	-205	136	63	-320	-1248	-16144	-16311	327	213	119	-1872	-4176	16000
-15213	-119	93	114	-2576	288	16560	-16070	175	317	112	-5216	-3840	15088	-16537	-206	142	69	-224	-1280	-16144	-16308	319	216	111	-1872	-4256	15776
-15219	-135	91	118	-2496	256	16688	-16040	173	306	113	-5232	-3984	15184	-16526	-206	138	67	-320	-1312	-16176	-16287	323	207	111	-1808	-4304	15968
-15231	-132	96	113	-2544	224	16592	-16064	169	327	117	-5152	-4016	15088	-16551	-211	138	68	-240	-1312	-16320	-16288	325	207	109	-1824	-4192	15888
-15231	-136	92	120	-2608	304	16464	-16064	173	333	111	-5152	-3824	15056	-16539	-208	144	73	-224	-1280	-16128	-16282	330	219	118	-1856	-4224	15808
-15226	-137	92	118	-2672	256	16656	-16073	161	319	108	-5232	-4032	15168	-16523	-213	135	60	-208	-1392	-16160	-16308	321	212	118	-1776	-4304	15872
-15216	-130	85	119	-2576	240	16640	-16037	170	323	116	-5216	-3968	15056	-16511	-210	139	71	-288	-1360	-16144	-16291	323	209	114	-1808	-4224	15824
-15247	-130	91	127	-2528	208	16656	-16062	170	318	120	-5200	-4000	15088	-16534	-208	139	67	-224	-1312	-16160	-16271	321	213	119	-1904	-4128	15952
-15226	-129	88	119	-2624	224	16640	-16070	170	328	117	-5232	-3968	15072	-16538	-215	130	67	-320	-1296	-16192	-16288	320	215	115	-1840	-4144	16032
-15227	-131	93	121	-2624	352	16640	-16060	164	323	116	-5216	-3952	15120	-16545	-215	136	60	-256	-1296	-16208	-16293	316	209	114	-1888	-4224	15904
-15235	-131	97	110	-2640	320	16640	-16081	172	310	125	-5200	-3984	15120	-16537	-213	132	69	-256	-1264	-16160	-16300	315	211	118	-1824	-4224	15840
-15242	-135	93	120	-2592	240	16704	-16059	167	323	117	-5232	-4000	15024	-16543	-219	139	69	-224	-1248	-16160	-16300	331	218	118	-1952	-4208	15920
-15218	-130	82	122	-2512	224	16608	-16065	175	316	109	-5216	-4112	15200	-16542	-204	127	66	-240	-1312	-16128	-16306	318	217	111	-1696	-4176	15888
-15256	-127	96	125	-2592	192	16704	-16060	173	321	110	-5184	-4000	15184	-16533	-200	133	68	-304	-1264	-16304	-16297	316	212	118	-1872	-4208	15888
-15216	-127	82	120	-2592	240	16688	-16090	169	320	110	-5200	-3920	15056	-16523	-211	140	65	-320	-1312	-16224	-16285	317	216	116	-1808	-4208	15952
-15225	-132	91	125	-2608	256	16576	-16062	170	321	119	-5216	-3936	15072	-16526	-218	136	63	-208	-1376	-16144	-16302	326	210	118	-1824	-4128	16048
-15240	-127	85	121	-2544	224	16576	-16057	173	310	113	-5136	-3984	15136	-16538	-205	134	62	-288	-1360	-16224	-16286	321	211	116	-1872	-4176	15936
-15218	-133	90	123	-2576	288	16656	-16073	170	306	114	-5216	-3984	15040	-16543	-209	138	65	-240	-1296	-16144	-16267	317	210	115	-1792	-4128	15872
-15226	-132	89	123	-2688	256	16656	-16060	168	317	111	-5184	-4048	15184	-16530	-206	136	65	-192	-1344	-16208	-16277	317	217	126	-1808	-4128	15872
-15206	-135	99	122	-2640	208	16656	-16078	172	318	105	-5216	-4000	15088	-16532	-208	137	69	-176	-1328	-16144	-16271	322	211	119	-1824	-4144	15888
-15215	-128	96	118	-2608	288	16784	-16083	165	314	112	-5152	-4032	15264	-16532	-208	141	70	-208	-1312	-16128	-16284	327	211	115	-1840	-4128	15936
-15226	-142	87	121	-2512	224	16560	-16079	167	319	109	-5200	-4016	15088	-16542	-212	146	67	-176	-1296	-16144	-16283	323	212	115	-1840	-4240	15840
-15222	-132	94	120	-2592	256	16640	-16055	172	316	111	-5136	-3984	15008	-16564	-213	140	67	-208	-1344	-16352	-16295	319	215	119	-1808	-4192	15888
-15225	-128	88	123	-2528	256	16592	-16044	173	323	113	-5168	-4016	15056	-16530	-219	142	68	-272	-1344	-16160	-16302	321	208	114	-1840	-4144	15920
-15232	-133	95	118	-2544	256	16512	-16039	163	307	114	-5312	-4000	15184	-16522	-214	140	67	-352	-1248	-16224	-16278	324	211	122	-1888	-4208	15904
-15224	-131	89	122	-2576	256	16656	-16074	163	321	109	-5152	-3984	15088	-16551	-204	132	70	-304	-1312	-16080	-16279	322	212	118	-1888	-4304	16064
-15233	-131	96	114	-2592	208	16640	-16066	166	321	107	-5296	-3968	15120	-16510	-209	144	67	-256	-1264	-16176	-16283	319	208	113	-1888	-4208	15872
-15219	-133	94	120	-2592	224	16640	-16062	172	312	117	-5104	-4048	15152	-16519	-209	141	64	-208	-1296	-16144	-16300	321	213	112	-1824	-4272	15824
-15237	-127	101	135	-2592	304	16560	-16053	173	313	107	-5216	-4064	15152	-16553	-212	141	65	-208	-1280	-16096	-16290	326	206	120	-1840	-4224	15952
-15226	-128	93	121	-2592	288	16640	-16071	170	310	113	-5168	-4016	15184	-16538	-205	147	69	-192	-1264	-16320	-16291	325	208	117	-1888	-4208	15920
-15240	-132	91	121	-2560	272	16496	-16064	176	311	113	-5136	-4080	15152	-16538	-208	135	66	-304	-1264	-16224	-16281	326	210	115	-1824	-4272	15984
-15222	-130	93	119	-2528	336	16656	-16075	168	320	112	-5104	-3872	15008	-16551	-204	136	67	-240	-1328	-16240	-16303	323	207	112	-1904	-4208	15936
-15216	-135	90	119	-2640	288	16640	-16076	169	312	115	-5184	-4064	15184	-16557	-213	134	67	-368	-1264	-16240	-16296	320	209	118	-1776	-4192	15968
-15236	-129	92	121	-2576	256	16672	-16068	158	315	118	-5136	-3968	15040	-16560	-212	138	59	-240	-1296	-16000	-16309	324	204	116	-1888	-4208	15984
-15219	-128	89	123	-2608	320	16720	-16076	166	316	114	-5136	-3872	15104	-16553	-212	142	60	-224	-1328	-16176	-16277	322	211	112	-1840	-4256	15808
-15210	-130	87	129	-2624	240	16656	-16057	164	309	114	-5280	-4000	15120	-16543	-214	138	62	-208	-1280	-16192	-16293	316	204	112	-1872	-4208	15968
-15218	-134	88	121	-2608	320	16688	-16058	169	317	112	-5296	-4096	15056	-16513	-212	138	68	-240	-1264	-16224	-16280	315	211	114	-1776	-4096	15792
-15222	-134	92	116	-2528	208	16704	-16078	167	320	115	-5232	-3936	15024	-16539	-212	143	59	-176	-1344	-16272	-16282	326	210	120	-1856	-4160	15952
-15230	-123	85	113	-2576	336	16688	-16071	170	315	111	-5152	-4000	14992	-16533	-209	137	67	-320	-1344	-16112	-16278	312	216	114	-1824	-4144	15952
-15249	-133	92	120	-2496	240	16640	-16072	169	314	110	-5168	-4016	15008	-16539	-205	142	66	-288	-1296	-16128	-16292	320	211	115	-1856	-4128	15936
-15222	-131	98	119	-2512	272	16560	-16062	174	322	111	-5216	-4032	15120	-16510	-204	141	68	-240	-1248	-16160	-16291	314	216	120	-1872	-4160	15888
-15238	-136	96	127	-2688	224	16576	-16081	165	322	117	-5184	-4032	15056	-16518	-206	129	69	-224	-1328	-16128	-16291	320	210	113	-1872	-4128	15920
-15220	-132	81	116	-2560	288	16640	-16052	168	323	109	-5216	-3920	15168	-16535	-205	132	62	-256	-1392	-16176	-16266	326	211	118	-1840	-4160	15888
-15224	-125	86	128	-2576	304	16688	-16079	161	321	110	-5248	-3936	15072	-16523	-207	134	71	-208	-1312	-16224	-16307	324	210	118	-1872	-4240	15952
-15225	-132	94	117	-2576	192	16592	-16063	165	323	116	-5216	-3968	14992	-16515	-205	140	70	-208	-1296	-16160	-16285	322	203	115	-1824	-4224	15936
-15215	-131	90	116	-2576	192	16656	-16074	165	330	118	-5200	-4016	15088	-16528	-209	130	63	-272	-1328	-16208	-16265	319	210	120	-1872	-4192	15872
-15239	-139	92	124	-2576	320	16496	-16047	171	341	117	-5184	-3984	15184	-16545	-214	144	69	-224	-1280	-16304	-16284	325	211	109	-1840	-4160	15872
-15223	-131	86	113	-2592	192	16640	-16068	170	326	110	-5168	-4000	15024	-16526	-208	147	70	-288	-1248	-16288	-16285	316	214	116	-1808	-4192	15952
-15229	-130	91	118	-2496	176	16672	-16085	168	322	117	-5152	-3984	15120	-16529	-210	142	67	-256	-1312	-16192	-16283	318	217	112	-1808	-4144	15936
-15218	-136	104	120	-2576	240	16592	-16057	175	329	116	-5168	-3936	15024	-16538	-213	144	69	-352	-1360	-16224	-16276	321	212	112	-1872	-4112	16000
-15212	-134	95	125	-2576	208	16480	-16061	165	323	110	-5184	-4000	15056	-16537	-209	133	65	-240	-1312	-16096	-16286	313	210	114	-1760	-4208	15872
-15205	-128	95	121	-2544	256	16528	-16053	169	322	109	-5216	-3936	15072	-16552	-210	127	64	-208	-1360	-16144	-16299	318	206	127	-1776	-4128	16048
-15219	-128	95	119	-2592	272	16528	-16066	178	321	117	-5120	-3968	15104	-16543	-213	130	67	-256	-1248	-16160	-16288	327	211	121	-1824	-4112	15856
-15246	-134	90	120	-2592	272	16608	-16071	171	322	112	-5200	-4080	15024	-16532	-214	142	60	-208	-1344	-16096	-16288	321	213	115	-1808	-4144	15984
-15240	-133	82	126	-2688	272	16528	-16071	165	316	116	-5136	-4000	15216	-16524	-212	148	67	-368	-1216	-16288	-16283	312	210	116	-1856	-4192	15920
-15227	-128	97	120	-2544	128	16688	-16060	164	311	116	-5232	-4032	15088	-16528	-206	137	73	-240	-1344	-16096	-16296	316	205	110	-1840	-4144	15984
-15233	-128	91	115	-2592	224	16704	-16062	174	319	110	-5168	-3952	15120	-16538	-201	146	63	-288	-1312	-16176	-16294	318	210	123	-1824	-4160	15952
-15231	-129	92	125	-2544	208	16816	-16056	169	312	112	-5152	-4016	15024	-16521	-208	146	62	-240	-1296	-16080	-16288	318	207	112	-1904	-4176	16128
-15207	-129	92	121	-2592	208	16576	-16094	170	308	117	-5120	-3872	15152	-16554	-207	142	68	-256	-1312	-16224	-16288	323	207	115	-1872	-4192	15920
-15221	-129	88	125	-2576	272	16640	-16064	170	317	118	-5136	-4064	15088	-16540	-204	144	74	-336	-1280	-16224	-16297	323	217	116	-1888	-4144	15792
-15219	-135	97	121	-2592	176	16592	-16088	171	327	115	-5216	-4016	15056	-16537	-215	139	63	-272	-1296	-16208	-16283	317	212	112	-1760	-4128	16000
-15232	-134	87	118	-2544	256	16656	-16065	165	315	117	-5216	-3920	15104	-16535	-208	144	62	-224	-1408	-16160	-16293	322	208	118	-1808	-4192	15952
-15226	-130	96	120	-2576	256	16640	-16058	164	309	112	-5152	-3984	15072	-16518	-207	142	65	-288	-1328	-16304	-16289	332	208	117	-1824	-4176	15888
-15239	-130	97	121	-2576	208	16640	-16070	167	314	113	-5200	-4032	15104	-16532	-214	143	68	-240	-1248	-16272	-16296	329	207	117	-1760	-4208	15856
-15235	-132	96	124	-2528	192	16528	-16069	159	316	113	-5152	-4048	15200	-16556	-216	131	70	-240	-1296	-16224	-16290	324	213	116	-1904	-4224	15824
-15222	-133	91	126	-2576	128	16720	-16058	169	316	109	-5088	-3984	14976	-16558	-204	135	70	-304	-1440	-16208	-16287	328	203	121	-1888	-4160	16000
-15223	-131	93	118	-2576	288	16640	-16054	172	313	113	-5168	-3968	15248	-16544	-209	135	71	-192	-1248	-16240	-16289	322	210	119	-1808	-4208	15872
-15238	-128	97	122	-2528	224	16640	-16048	169	312	115	-5088	-3920	14960	-16537	-215	131	64	-288	-1280	-16160	-16289	322	220	122	-1872	-4176	15920
-15230	-135	90	122	-2640	240	16640	-16070	161	307	113	-5168	-3920	15104	-16525	-215	140	64	-240	-1312	-16192	-16284	317	220	116	-1920	-4144	15936
-15224	-129	94	120	-2576	256	16656	-16047	169	309	114	-5200	-3952	15152	-16546	-208	141	71	-288	-1328	-16096	-16308	323	207	112	-1856	-4144	15888
-15223	-135	91	110	-2576	176	16576	-16064	163	308	114	-5184	-4000	15168	-16561	-213	133	71	-288	-1280	-16160	-16291	323	212	112	-1776	-4272	15968
-15229	-127	96	117	-2656	208	16704	-16076	176	309	116	-5168	-3984	15088	-16552	-213	132	64	-240	-1424	-16208	-16309	322	209	115	-1840	-4256	15984
-15207	-129	91	115	-2512	336	16640	-16058	164	318	118	-5168	-4080	15168	-16549	-208	136	69	-224	-1312	-16048	-16288	319	207	111	-1680	-4176	15824
-15247	-133	96	117	-2528	160	16720	-16057	166	322	111	-5168	-3984	15040	-16541	-212	132	64	-288	-1296	-16256	-16299	318	209	117	-1904	-4128	15984
-15235	-140	89	122	-2560	288	16592	-16076	169	314	112	-5280	-3968	15232	-16542	-213	131	63	-256	-1344	-16224	-16294	329	213	116	-1888	-4208	16016
-15215	-128	89	115	-2512	288	16640	-16046	169	322	112	-5200	-4000	14992	-16537	-207	144	69	-288	-1280	-16224	-16274	323	214	122	-1808	-4096	15936
-15217	-134	87	121	-2592	208	16704	-16055	168	308	111	-5216	-3904	15088	-16542	-206	132	69	-224	-1344	-16352	-16289	314	206	118	-1840	-4256	15952
-15219	-126	95	120	-2624	240	16640	-16049	170	315	106	-5184	-4064	15120	-16522	-210	141	63	-224	-1328	-16128	-16291	322	210	111	-1920	-4176	15984
-15226	-138	94	119	-2592	176	16640	-16070	165	313	113	-5136	-3936	15088	-16531	-208	145	68	-272	-1312	-16176	-16289	322	215	116	-1840	-4176	15824
-15235	-142	95	122	-2576	256	16736	-16072	167	310	113	-5264	-4000	15104	-16514	-210	140	66	-272	-1408	-16224	-16279	322	215	111	-1760	-4144	15904
-15211	-134	91	121	-2544	208	16720	-16068	163	320	104	-5248	-3968	15072	-16539	-204	136	73	-160	-1344	-16160	-16281	326	218	116	-1744	-4128	15728
-15220	-128	89	124	-2560	240	16576	-16083	157	322	113	-5216	-3984	15104	-16532	-210	138	67	-224	-1312	-16128	-16283	317	214	114	-1856	-4224	15872
-15223	-124	96	117	-2592	288	16576	-16074	171	316	110	-5200	-3872	15136	-16534	-212	138	65	-304	-1280	-16160	-16283	324	212	113	-1792	-4128	15936
-15230	-130	85	112	-2512	256	16704	-16064	172	309	112	-5136	-3936	15184	-16558	-208	140	73	-224	-1264	-16128	-16278	320	206	117	-1888	-4240	15888
-15220	-132	96	128	-2512	224	16720	-16065	167	321	116	-5184	-4032	15104	-16537	-200	130	60	-288	-1232	-16192	-16270	326	204	116	-1904	-4240	15920
-15217	-135	97	122	-2560	256	16656	-16055	169	314	112	-5152	-4048	15184	-16534	-208	136	61	-160	-1312	-16224	-16313	323	211	115	-1872	-4096	15792
-15231	-128	81	124	-2576	288	16720	-16061	170	323	109	-5216	-3984	15040	-16560	-213	139	65	-272	-1232	-16240	-16282	320	214	113	-1872	-4112	15952
-15235	-132	90	121	-2592	192	16528	-16046	170	324	115	-5248	-3952	15088	-16548	-209	146	72	-208	-1456	-16208	-16285	318	214	122	-1936	-4176	15888
-15235	-129	89	117	-2576	224	16480	-16048	167	315	121	-5264	-4016	15152	-16518	-198	137	65	-240	-1296	-16160	-16307	318	212	121	-1824	-4176	16000
-15247	-125	87	119	-2576	256	16640	-16059	163	321	112	-5120	-3920	15088	-16526	-210	137	68	-288	-1264	-16208	-16289	323	207	118	-1808	-4208	16016
-15228	-128	86	126	-2576	176	16720	-16069	164	324	113	-5104	-4000	15088	-16539	-212	134	66	-352	-1232	-16192	-16273	311	212	120	-1792	-4192	15856
-15243	-128	88	117	-2544	304	16688	-16057	171	323	107	-5120	-4064	15136	-16554	-211	137	71	-256	-1264	-16160	-16300	317	200	118	-1904	-4176	15760
-15229	-133	85	122	-2576	288	16544	-16060	170	327	115	-5232	-3984	15040	-16565	-209	143	67	-224	-1312	-16160	-16287	327	208	114	-1728	-4192	15808
-15232	-133	93	116	-2544	224	16544	-16061	171	312	115	-5264	-3936	15184	-16534	-213	149	67	-272	-1232	-16112	-16298	327	214	115	-1856	-4176	15840
-15218	-130	97	112	-2560	256	16688	-16079	164	329	113	-5168	-3952	15136	-16525	-216	142	67	-176	-1248	-16240	-16278	331	217	113	-1744	-4240	15872
-15206	-129	90	119	-2576	240	16624	-16064	171	316	117	-5200	-4032	15184	-16493	-205	134	67	-288	-1296	-16176	-16289	320	208	120	-1840	-4192	15952
-15220	-126	91	120	-2576	160	16592	-16066	170	304	114	-5168	-3920	15040	-16535	-211	141	61	-320	-1280	-16240	-16287	320	208	117	-1760	-4112	15744
-15231	-129	98	119	-2528	272	16528	-16049	176	316	117	-5168	-4064	15040	-16528	-210	132	62	-288	-1312	-16176	-16293	324	208	115	-1840	-4144	15888
-15217	-133	88	123	-2560	256	16640	-16070	177	321	112	-5216	-3984	15088	-16507	-211	139	65	-320	-1264	-16144	-16296	315	204	122	-1840	-4272	15792
-15243	-139	87	114	-2512	320	16720	-16062	170	319	109	-5200	-4016	15040	-16520	-209	136	69	-304	-1328	-16160	-16286	322	207	117	-1840	-4160	16064
-15230	-134	93	124	-2592	224	16656	-16063	166	320	106	-5200	-4112	15072	-16548	-210	137	64	-272	-1264	-16080	-16288	326	214	116	-1824	-4112	15808
-15231	-132	85	116	-2656	192	16560	-16057	174	329	107	-5200	-3952	15056	-16530	-214	144	68	-288	-1360	-16272	-16279	322	214	120	-1856	-4128	16032
-15250	-132	84	115	-2592	272	16656	-16076	169	325	116	-5184	-4032	15184	-16543	-213	145	60	-272	-1296	-16144	-16290	322	214	122	-1824	-4240	15872
-15223	-132	93	119	-2512	192	16560	-16057	166	312	109	-5200	-3968	15056	-16523	-211	140	56	-192	-1296	-16144	-16288	322	210	119	-1808	-4208	16000
-15216	-133	88	128	-2576	192	16528	-16056	172	319	114	-5200	-3904	15104	-16529	-208	144	69	-304	-1296	-16144	-16284	318	224	121	-1856	-4144	15856
-15228	-128	93	120	-2512	176	16656	-16073	171	311	111	-5152	-3984	15024	-16535	-209	144	71	-160	-1248	-16112	-16290	321	215	118	-1696	-4160	15872
-15222	-136	82	121	-2528	272	16656	-16060	169	305	112	-5200	-4000	15072	-16506	-204	140	65	-272	-1328	-16144	-16281	314	209	121	-1824	-4192	15904
-15215	-134	91	117	-2608	288	16640	-16028	167	307	116	-5168	-4032	15232	-16527	-209	143	66	-240	-1248	-16128	-16294	322	214	115	-1808	-4240	15840
-15237	-125	90	113	-2592	224	16560	-16045	176	305	112	-5216	-3968	15168	-16539	-213	145	65	-352	-1232	-16320	-16277	321	213	127	-1776	-4144	15952
-15231	-134	91	112	-2576	288	16704	-16047	170	320	112	-5168	-3968	14912	-16536	-214	144	64	-288	-1312	-16096	-16297	322	210	116	-1856	-4064	15824
-15235	-141	91	120	-2576	240	16560	-16070	174	320	113	-5232	-3984	15040	-16533	-210	142	69	-224	-1392	-16256	-16281	318	208	116	-1872	-4176	15824
-15237	-135	95	125	-2528	240	16560	-16073	173	316	114	-5152	-3968	14992	-16529	-205	142	61	-208	-1312	-16096	-16280	329	208	114	-1856	-4144	15936
-15209	-139	96	122	-2528	208	16704	-16068	173	318	109	-5136	-4032	15104	-16551	-218	135	72	-208	-1264	-16224	-16284	312	219	119	-1888	-4224	15920
-15222	-133	90	126	-2528	208	16736	-16054	167	329	112	-5232	-3984	15168	-16536	-206	142	63	-272	-1232	-16192	-16290	317	206	117	-1840	-4192	16016
-15222	-128	90	122	-2576	128	16576	-16064	164	327	106	-5184	-4048	15104	-16510	-214	139	67	-192	-1280	-16144	-16261	321	208	114	-1824	-4160	16000
-15222	-130	89	114	-2560	144	16656	-16069	172	311	107	-5168	-4048	15152	-16531	-208	144	71	-272	-1312	-16240	-16299	326	214	108	-1872	-4192	15888
-15237	-129	98	113	-2528	304	16640	-16077	164	319	109	-5168	-3888	15120	-16517	-205	142	68	-288	-1392	-16208	-16278	326	220	114	-1792	-4240	15904
-15220	-132	94	118	-2560	256	16720	-16068	179	325	119	-5168	-4112	15088	-16543	-207	140	64	-224	-1344	-16224	-16307	321	208	113	-1840	-4176	15968
-15227	-144	91	117	-2576	256	16704	-16073	168	316	114	-5232	-3888	15184	-16547	-209	139	55	-272	-1312	-16144	-16298	325	207	121	-1840	-4144	15824
-15216	-128	95	118	-2528	144	16608	-16082	171	319	114	-5216	-4000	14992	-16529	-209	141	64	-224	-1296	-16080	-16291	321	216	110	-1824	-4144	15888
-15210	-131	88	118	-2528	272	16528	-16072	170	316	117	-5200	-4000	15120	-16522	-203	136	69	-224	-1264	-16128	-16292	319	207	115	-1856	-4176	15968
-15198	-132	96	109	-2576	192	16560	-16071	168	319	113	-5232	-4000	15120	-16523	-206	144	67	-288	-1248	-16192	-16280	323	203	117	-1824	-4160	16048
-15208	-136	80	118	-2576	240	16672	-16056	164	312	117	-5200	-3936	15168	-16547	-205	131	61	-224	-1328	-16272	-16292	322	211	117	-1744	-4208	15872
-15229	-138	87	115	-2560	160	16640	-16053	169	314	117	-5152	-4000	15056	-16551	-206	138	68	-160	-1312	-16176	-16287	318	206	113	-1824	-4128	15792
-15225	-134	95	118	-2576	256	16624	-16070	171	312	110	-5232	-3936	15104	-16532	-211	138	67	-224	-1296	-16128	-16281	327	213	126	-1856	-4128	15888
-15217	-135	94	116	-2624	224	16640	-16058	169	315	113	-5216	-3904	15056	-16520	-214	148	70	-272	-1296	-16256	-16278	325	201	119	-1952	-4112	15952
-15211	-132	86	114	-2608	256	16560	-16052	169	307	121	-5104	-3984	15104	-16534	-203	142	68	-304	-1280	-16240	-16275	318	205	116	-1904	-4160	16048
-15203	-136	84	128	-2560	192	16640	-16056	169	308	111	-5200	-3968	15040	-16555	-211	135	62	-272	-1296	-16176	-16298	322	212	118	-1824	-4224	16000
-15228	-132	87	126	-2592	256	16704	-16074	167	322	111	-5136	-3936	15056	-16507	-215	139	73	-256	-1232	-16176	-16300	328	208	115	-1808	-4096	15984
-15214	-136	91	115	-2560	208	16512	-16056	163	317	108	-5200	-3968	15104	-16546	-209	142	73	-320	-1248	-16208	-16294	321	212	113	-1840	-4144	15792
-15227	-130	84	128	-2640	224	16576	-16048	163	311	109	-5232	-3888	15040	-16531	-202	137	75	-208	-1280	-16160	-16290	320	214	113	-1760	-4176	15888
-15215	-132	88	116	-2640	288	16640	-16059	165	311	117	-5168	-3952	14960	-16540	-209	148	73	-288	-1328	-16240	-16289	324	207	116	-1872	-4176	15904
-15233	-127	92	120	-2528	304	16640	-16070	165	327	110	-5216	-4048	15184	-16535	-214	140	68	-208	-1296	-16112	-16275	321	212	119	-1936	-4160	16080
-15221	-131	98	117	-2576	224	16464	-16070	167	317	107	-5088	-4032	15104	-16503	-213	133	72	-272	-1280	-16256	-16291	324	210	113	-1856	-4064	15824
-15240	-139	95	119	-2560	240	16656	-16075	170	321	116	-5136	-3952	15024	-16544	-204	135	69	-160	-1312	-16224	-16284	332	207	117	-1840	-4032	15888
-15253	-132	102	117	-2672	176	16720	-16076	169	310	108	-5152	-3968	15120	-16549	-209	137	65	-192	-1296	-16240	-16283	324	209	115	-1824	-4160	15920
-15228	-132	94	121	-2592	240	16656	-16077	177	317	109	-5184	-3872	15104	-16551	-203	141	66	-288	-1296	-16176	-16285	318	203	112	-1888	-4208	15984
-15227	-133	87	124	-2592	240	16640	-16064	164	322	110	-5248	-3936	15232	-16552	-213	137	67	-224	-1264	-16128	-16290	329	211	116	-1840	-4144	15824
-15243	-129	89	120	-2560	192	16640	-16051	170	315	108	-5168	-3936	15104	-16572	-203	131	57	-224	-1232	-16224	-16282	324	210	121	-1824	-4176	15920
-15229	-142	90	119	-2592	224	16592	-16057	164	316	114	-5216	-3920	15168	-16552	-210	139	68	-240	-1264	-16240	-16287	328	209	120	-1904	-4176	15968
-15216	-139	92	123	-2592	240	16656	-16070	170	319	113	-5232	-4000	15120	-16518	-213	133	66	-208	-1344	-16208	-16291	326	204	113	-1792	-4176	15776
-15216	-133	92	124	-2560	128	16640	-16073	174	319	112	-5232	-4000	15120	-16545	-216	139	69	-304	-1280	-16224	-16298	325	209	116	-1824	-4176	15824
-15219	-131	87	112	-2624	240	16544	-16061	163	323	111	-5200	-3904	15088	-16528	-211	141	69	-224	-1264	-16144	-16283	325	209	114	-1840	-4128	15744
-15222	-128	93	116	-2688	208	16608	-16071	167	314	107	-5168	-3952	15040	-16528	-202	132	68	-144	-1248	-16192	-16292	324	207	116	-1808	-4144	15952
-15220	-131	84	120	-2528	208	16592	-16063	165	313	112	-5200	-3952	15232	-16548	-208	137	63	-144	-1248	-16160	-16271	324	213	120	-1904	-4224	15856
-15233	-129	92	120	-2560	304	16576	-16080	172	312	115	-5088	-3888	15056	-16528	-201	135	63	-192	-1360	-16240	-16289	319	213	121	-1872	-4160	15984
-15230	-139	87	116	-2576	240	16656	-16058	173	309	117	-5168	-3968	15056	-16517	-213	142	58	-224	-1232	-16112	-16283	323	209	119	-1872	-4160	15872
-15219	-135	92	119	-2608	176	16752	-16061	165	322	113	-5168	-3968	15072	-16534	-212	148	73	-288	-1376	-16224	-16294	323	209	108	-1840	-4208	15984
-15214	-130	90	124	-2592	224	16560	-16065	160	312	111	-5216	-3904	15168	-16520	-210	136	70	-240	-1344	-16224	-16295	322	213	114	-1792	-4128	15872
-15221	-130	86	120	-2624	176	16704	-16059	167	316	107	-5184	-3920	15056	-16539	-210	136	67	-320	-1312	-16144	-16293	317	208	120	-1904	-4160	15952
-15228	-129	86	126	-2560	352	16656	-16062	179	328	116	-5152	-3936	15120	-16529	-207	140	59	-224	-1312	-16192	-16271	319	211	112	-1824	-4160	15888
-15230	-131	94	116	-2496	256	16640	-16059	169	320	113	-5216	-4000	15056	-16535	-205	128	64	-256	-1248	-16208	-16295	315	208	118	-1808	-4320	16000
-15204	-136	93	118	-2512	208	16720	-16062	173	315	110	-5200	-4048	15136	-16525	-209	138	68	-208	-1328	-16160	-16282	321	202	124	-1840	-4144	15936
-15228	-130	92	122	-2592	208	16512	-16065	165	328	111	-5104	-4064	15136	-16524	-205	140	65	-256	-1392	-16176	-16282	316	214	115	-1888	-4176	15936
-15230	-136	98	120	-2528	192	16672	-16075	167	325	112	-5152	-4080	15040	-16508	-207	135	71	-272	-1200	-16112	-16272	321	209	120	-1808	-4304	15888
-15211	-137	84	120	-2624	304	16640	-16065	168	327	111	-5216	-3968	15088	-16568	-207	129	59	-208	-1312	-16112	-16291	326	206	119	-1824	-4240	15872
-15238	-128	92	126	-2576	288	16528	-16068	164	310	117	-5216	-3904	15136	-16543	-208	126	60	-240	-1280	-16208	-16273	318	207	118	-1856	-4160	15856
-15239	-130	94	120	-2608	208	16576	-16064	171	324	119	-5200	-4016	15120	-16543	-211	128	71	-208	-1232	-16032	-16285	318	213	120	-1776	-4208	15952
-15228	-132	96	122	-2512	224	16656	-16064	167	314	113	-5200	-4032	15008	-16528	-207	148	64	-272	-1328	-16160	-16293	322	214	114	-1872	-4272	15936
-15229	-126	82	131	-2576	256	16608	-16069	165	306	112	-5200	-4000	15120	-16535	-212	144	66	-288	-1312	-16144	-16294	328	206	112	-1872	-4176	15952
-15233	-136	92	119	-2528	256	16592	-16052	175	308	115	-5200	-4016	15104	-16530	-209	145	63	-304	-1296	-16096	-16290	321	210	112	-1872	-4208	15936
-15225	-127	97	123	-2624	224	16688	-16050	169	323	110	-5216	-3984	15024	-16533	-209	134	69	-288	-1344	-16208	-16285	318	216	110	-1744	-4320	15808
-15236	-127	92	121	-2496	224	16560	-16056	167	314	115	-5184	-3904	15168	-16533	-211	129	63	-272	-1312	-16336	-16310	325	207	112	-1888	-4160	15888
-15210	-130	89	122	-2656	240	16640	-16062	167	308	111	-5280	-3984	15120	-16537	-212	132	67	-208	-1264	-16096	-16302	319	208	117	-1888	-4176	15936
-15202	-133	87	119	-2560	240	16592	-16063	167	319	112	-5184	-3968	15120	-16546	-203	133	70	-288	-1328	-16160	-16297	321	214	117	-1888	-4176	15920
-15239	-129	96	116	-2544	208	16688	-16072	174	313	111	-5232	-3920	15216	-16546	-212	140	68	-256	-1296	-16192	-16295	318	209	114	-1728	-4096	15904
-15233	-138	91	126	-2576	256	16688	-16070	169	316	113	-5216	-3984	15152	-16538	-210	139	65	-288	-1360	-16176	-16292	322	206	118	-1872	-4256	15984
-15211	-133	86	121	-2496	336	16464	-16066	170	320	114	-5200	-3952	15168	-16548	-207	141	72	-144	-1328	-16048	-16283	322	213	113	-1824	-4112	15936
-15219	-134	91	109	-2592	240	16640	-16062	176	313	120	-5232	-3968	15024	-16536	-211	147	74	-224	-1360	-16208	-16278	322	212	109	-1808	-4160	15856
-15226	-139	91	115	-2496	256	16640	-16063	166	317	120	-5136	-4016	15232	-16544	-210	132	69	-144	-1296	-16192	-16306	322	215	113	-1824	-4176	15952
-15213	-132	89	114	-2640	192	16560	-16043	168	327	115	-5200	-3984	15152	-16523	-209	132	70	-256	-1296	-16144	-16287	321	213	115	-1872	-4112	15904
-15216	-127	90	125	-2576	208	16512	-16047	169	321	117	-5168	-4000	15056	-16549	-214	139	63	-176	-1360	-16224	-16281	324	205	115	-1904	-4208	15904
-15216	-129	87	118	-2576	272	16592	-16052	174	315	111	-5184	-3936	15040	-16546	-216	132	63	-272	-1216	-16144	-16278	322	213	117	-1824	-4192	15904
-15226	-138	95	118	-2576	160	16656	-16030	180	311	119	-5200	-3968	15056	-16535	-215	138	62	-288	-1248	-16128	-16303	318	209	118	-1840	-4176	15952
-15261	-140	80	120	-2544	320	16560	-16067	163	306	116	-5216	-3984	15104	-16529	-205	131	67	-208	-1360	-16128	-16291	318	213	121	-1728	-4192	15856
-15222	-138	87	126	-2576	176	16560	-16085	173	321	117	-5200	-3952	15200	-16525	-206	137	72	-240	-1456	-16112	-16308	322	219	117	-1888	-4128	15792
-15220	-138	88	119	-2464	256	16688	-16056	168	301	108	-5152	-3968	15136	-16530	-211	144	62	-272	-1376	-16208	-16294	317	212	118	-1872	-4256	15936
-15230	-133	98	115	-2576	176	16656	-16067	168	317	117	-5184	-4000	15120	-16520	-210	141	65	-160	-1360	-16208	-16295	322	214	114	-1936	-4176	15888
-15236	-127	91	121	-2496	240	16528	-16058	172	315	115	-5184	-4112	15168	-16551	-201	140	68	-288	-1280	-16160	-16285	323	216	116	-1952	-4304	15968
-15219	-125	90	116	-2512	240	16752	-16058	170	320	111	-5216	-3984	15104	-16550	-212	143	59	-288	-1200	-16160	-16291	319	212	119	-1872	-4128	15904
-15208	-136	88	111	-2608	192	16512	-16075	169	320	115	-5120	-4016	15200	-16525	-209	137	71	-272	-1344	-16144	-16289	321	210	113	-1744	-4128	15904
-15209	-129	93	120	-2624	224	16640	-16053	174	320	112	-5152	-3920	15056	-16545	-204	144	63	-288	-1280	-16160	-16293	313	208	120	-1872	-4128	15984
-15222	-131	95	119	-2576	256	16576	-16072	166	318	115	-5168	-4000	15072	-16539	-210	129	62	-224	-1296	-16176	-16296	326	205	116	-1856	-4112	15968
-15233	-129	93	120	-2608	192	16720	-16065	169	325	117	-5152	-4016	15184	-16537	-210	140	65	-256	-1312	-16144	-16302	326	216	118	-1824	-4208	15920
-15244	-133	94	120	-2592	192	16640	-16049	171	318	108	-5168	-4016	15024	-16518	-209	145	61	-240	-1296	-16272	-16296	324	207	109	-1840	-4208	15968
-15220	-132	93	124	-2624	256	16640	-16072	167	313	113	-5248	-3952	15184	-16544	-211	137	66	-288	-1392	-16160	-16288	318	217	119	-1856	-4064	15936
-15220	-131	90	119	-2560	224	16560	-16081	169	316	113	-5136	-4000	15072	-16548	-207	141	69	-240	-1312	-16144	-16302	316	205	121	-1920	-4160	15824
-15230	-135	93	113	-2576	176	16576	-16082	168	320	113	-5152	-3984	15104	-16530	-205	134	74	-256	-1424	-16208	-16285	327	210	119	-1808	-4080	15920
-15220	-126	84	123	-2592	256	16720	-16050	171	316	115	-5200	-4096	15120	-16550	-213	138	64	-304	-1312	-16272	-16296	324	211	113	-1776	-4096	15824
-15235	-132	89	124	-2656	192	16656	-16066	163	320	110	-5184	-3968	15120	-16542	-209	143	67	-224	-1312	-16240	-16294	322	212	119	-1760	-4208	16080
-15248	-131	87	113	-2496	224	16656	-16067	168	325	110	-5200	-3952	15136	-16534	-205	137	70	-256	-1344	-16224	-16293	319	218	120	-1856	-4144	15968
-15261	-142	82	116	-2592	224	16704	-16047	168	321	114	-5280	-3936	15120	-16536	-207	143	72	-208	-1296	-16144	-16289	324	207	119	-1856	-4224	16000
-15236	-130	92	120	-2576	256	16576	-16046	172	311	110	-5248	-3968	15024	-16549	-217	138	66	-304	-1296	-16208	-16270	321	204	120	-1824	-4160	15888
-15240	-126	90	119	-2592	256	16608	-16058	173	324	113	-5200	-4016	15024	-16534	-215	133	70	-256	-1184	-16128	-16285	326	207	119	-1808	-4128	15872
-15202	-132	97	123	-2576	192	16656	-16049	169	324	114	-5072	-3936	15200	-16533	-215	142	70	-256	-1376	-16096	-16292	320	210	109	-1824	-4176	16016
-15239	-128	88	118	-2576	224	16592	-16055	163	335	118	-5216	-3936	15152	-16562	-210	138	64	-320	-1280	-16208	-16283	320	204	115	-1872	-4080	15952
-15209	-129	94	118	-2592	224	16592	-16074	159	313	111	-5216	-3888	15056	-16530	-207	135	60	-272	-1312	-16240	-16291	328	207	113	-1728	-4224	15888
-15221	-137	95	122	-2528	240	16528	-16056	168	322	113	-5056	-3920	15168	-16526	-210	143	69	-256	-1280	-16096	-16300	320	210	114	-1760	-4192	15888
-15214	-127	89	121	-2592	256	16704	-16063	171	323	111	-5200	-3936	15056	-16532	-202	136	62	-272	-1360	-16192	-16293	317	208	114	-1824	-4096	15888
-15234	-131	84	118	-2640	288	16656	-16051	164	310	113	-5152	-4032	14944	-16544	-209	134	71	-256	-1328	-16160	-16297	324	211	115	-1840	-4160	15904
-15215	-135	91	122	-2528	192	16592	-16052	174	317	108	-5184	-3984	15136	-16544	-206	132	70	-240	-1360	-16112	-16297	324	214	116	-1824	-4176	15936
-15215	-132	93	123	-2592	176	16640	-16058	177	313	111	-5216	-3968	15120	-16525	-215	143	64	-208	-1296	-16016	-16274	316	210	112	-1808	-4176	15872
-15228	-132	84	117	-2496	240	16672	-16052	170	320	119	-5136	-4032	15120	-16540	-207	140	69	-256	-1264	-16256	-16290	323	211	108	-1872	-4144	15936
-15223	-130	93	123	-2640	208	16720	-16048	167	317	120	-5248	-3920	15152	-16550	-207	148	66	-272	-1312	-16192	-16274	321	213	112	-1904	-4240	15920
-15237	-127	91	117	-2560	208	16640	-16076	167	306	107	-5152	-3968	15056	-16533	-208	147	63	-352	-1248	-16224	-16298	323	210	114	-1760	-4192	15824
-15224	-129	86	121	-2592	240	16464	-16073	171	319	106	-5184	-4000	15152	-16516	-214	139	69	-320	-1296	-16288	-16294	329	209	113	-1840	-4208	15872
-15224	-135	88	123	-2608	256	16688	-16087	168	315	114	-5136	-3952	15024	-16522	-211	147	66	-224	-1280	-16304	-16283	328	205	116	-1792	-4192	15872
-15229	-131	92	125	-2576	256	16528	-16057	169	319	114	-5216	-3968	15120	-16519	-210	132	65	-272	-1264	-16160	-16283	325	218	123	-1840	-4128	15984
-15221	-133	93	125	-2608	256	16560	-16055	167	328	113	-5216	-3984	15152	-16511	-207	136	71	-224	-1312	-16176	-16307	319	217	115	-1808	-4176	15872
-15225	-131	88	116	-2544	256	16560	-16080	166	316	120	-5136	-3968	14992	-16513	-213	137	69	-288	-1344	-16208	-16286	327	211	117	-1872	-4256	15888
-15236	-133	91	115	-2720	256	16704	-16059	168	318	110	-5168	-4000	15024	-16510	-208	137	59	-256	-1344	-16272	-16279	315	207	104	-1824	-4160	15872
-15239	-132	96	123	-2560	224	16640	-16066	167	312	115	-5280	-4000	15184	-16543	-210	132	60	-320	-1264	-16144	-16292	324	207	114	-1904	-4128	15888
-15230	-139	95	119	-2592	176	16640	-16073	162	327	119	-5152	-4016	15120	-16535	-214	140	65	-288	-1312	-16208	-16285	328	212	122	-1728	-4080	15888
-15207	-132	87	118	-2640	368	16592	-16076	169	301	118	-5136	-4064	15216	-16520	-210	142	72	-224	-1312	-16160	-16284	313	211	113	-1872	-4064	15984
-15199	-133	86	113	-2560	208	16656	-16071	173	307	111	-5200	-4000	15104	-16527	-210	144	62	-160	-1296	-16176	-16293	316	217	120	-1824	-4176	15888
-15223	-133	99	110	-2656	224	16656	-16063	167	312	111	-5232	-4016	15152	-16543	-207	138	68	-208	-1392	-16336	-16287	314	210	119	-1808	-4256	15952
-15232	-132	95	127	-2560	144	16560	-16042	170	324	111	-5200	-4016	15088	-16573	-216	140	68	-192	-1296	-16192	-16283	321	212	117	-1824	-4096	15904
-15246	-135	93	121	-2512	272	16640	-16051	168	329	111	-5216	-3984	15008	-16533	-205	132	67	-272	-1296	-16160	-16298	321	216	109	-1888	-4144	15824
-15223	-137	88	117	-2544	272	16560	-16053	170	317	110	-5168	-3984	15104	-16548	-208	135	66	-224	-1312	-16176	-16280	316	208	118	-1856	-4208	16016
-15244	-129	86	128	-2608	160	16640	-16043	167	309	113	-5216	-4000	15136	-16529	-210	135	69	-304	-1360	-16208	-16290	315	207	119	-1872	-4208	15824
-15234	-130	83	119	-2544	336	16656	-16062	168	320	114	-5264	-3984	15056	-16539	-213	138	63	-304	-1296	-16096	-16282	323	212	119	-1872	-4192	16000
-15227	-128	89	121	-2624	208	16544	-16063	168	319	108	-5216	-4016	15152	-16521	-199	142	64	-256	-1296	-16080	-16274	319	212	120	-1856	-4272	15984
-15242	-132	94	118	-2544	256	16560	-16059	166	330	115	-5248	-3968	15104	-16550	-216	132	66	-288	-1328	-16208	-16298	330	209	114	-1856	-4192	15808
-15217	-131	91	120	-2592	224	16784	-16081	162	311	108	-5216	-4016	15136	-16532	-202	135	68	-240	-1296	-16240	-16286	322	213	120	-1856	-4224	15936
-15244	-129	92	123	-2608	176	16656	-16048	163	325	115	-5216	-3968	15184	-16524	-202	141	70	-288	-1296	-16128	-16286	325	217	123	-1824	-4176	15952
-15227	-135	88	122	-2512	208	16560	-16060	170	319	117	-5168	-3936	15104	-16546	-212	137	65	-224	-1296	-16016	-16291	321	213	121	-1872	-4176	15936
-15235	-134	88	116	-2624	240	16704	-16058	169	324	110	-5184	-3968	15008	-16541	-205	144	69	-288	-1328	-16096	-16281	318	214	120	-1872	-4112	15856
-15222	-133	92	114	-2592	192	16624	-16047	170	324	113	-5184	-4032	15152	-16531	-204	134	63	-224	-1296	-16224	-16288	319	214	113	-1840	-4208	15968
-15232	-134	90	109	-2576	224	16656	-16072	166	314	108	-5168	-3968	14976	-16523	-209	136	71	-256	-1296	-16000	-16294	320	213	113	-1760	-4160	15824
-15233	-128	93	122	-2592	288	16528	-16073	173	329	105	-5104	-3936	15024	-16549	-213	129	67	-304	-1280	-16224	-16288	320	208	116	-1856	-4336	15984
-15223	-135	91	116	-2592	224	16496	-16071	167	314	108	-5184	-3936	15024	-16542	-206	140	64	-208	-1328	-16256	-16291	326	207	120	-1984	-4192	15888
-15254	-130	92	125	-2560	240	16640	-16081	172	319	113	-5264	-4048	15104	-16535	-210	136	68	-224	-1312	-16176	-16292	321	218	120	-1824	-4224	15920
-15231	-133	96	116	-2528	288	16656	-16052	168	332	115	-5104	-4064	15120	-16536	-222	137	71	-256	-1264	-16144	-16299	321	211	114	-1904	-4144	15888
-15224	-132	96	114	-2608	240	16720	-16069	165	322	112	-5200	-4016	15120	-16530	-204	138	70	-224	-1312	-16112	-16281	318	209	117	-1840	-4176	16000
-15231	-143	94	123	-2592	176	16464	-16052	165	317	111	-5248	-3968	15200	-16539	-205	143	73	-304	-1312	-16192	-16318	318	216	107	-1824	-4208	15872
-15236	-132	96	117	-2608	240	16640	-16052	173	332	106	-5200	-4016	15088	-16561	-213	139	68	-208	-1344	-16176	-16303	312	213	115	-1872	-4112	16016
-15236	-124	86	115	-2592	160	16672	-16060	178	316	116	-5120	-3984	14992	-16516	-213	150	71	-192	-1296	-16240	-16290	313	209	119	-1872	-4288	15888
-15241	-131	89	119	-2560	272	16608	-16059	170	327	106	-5168	-4032	15184	-16525	-208	137	73	-160	-1296	-16160	-16273	319	214	110	-1888	-4144	15888
-15244	-129	92	117	-2528	288	16656	-16047	160	323	109	-5168	-3952	15024	-16532	-206	141	69	-224	-1360	-16160	-16267	319	219	116	-1856	-4208	16016
-15220	-130	88	112	-2576	176	16656	-16057	170	321	117	-5232	-4064	15040	-16516	-208	138	74	-320	-1408	-16144	-16284	322	207	113	-1728	-4304	15984
-15226	-136	88	124	-2576	160	16656	-16056	167	322	117	-5200	-3952	15120	-16529	-203	138	71	-288	-1296	-16176	-16289	325	207	123	-1856	-4176	15872
-15239	-132	91	120	-2480	224	16576	-16060	171	308	112	-5232	-3936	15136	-16536	-211	133	61	-240	-1264	-16128	-16289	328	203	122	-1856	-4272	15776
-15231	-133	99	125	-2576	240	16640	-16088	171	324	119	-5216	-3936	15136	-16519	-203	146	62	-272	-1296	-16176	-16286	320	212	119	-1840	-4240	15920
-15235	-135	92	124	-2592	160	16560	-16061	168	325	117	-5184	-3920	15168	-16528	-208	147	65	-272	-1312	-16080	-16284	315	208	120	-1808	-4208	15792
-15220	-136	95	120	-2672	224	16592	-16068	169	324	116	-5184	-4000	15024	-16540	-210	138	65	-256	-1264	-16064	-16294	323	209	118	-1824	-4144	15968
-15210	-135	96	127	-2592	304	16640	-16078	164	326	113	-5232	-3968	15184	-16570	-203	136	69	-224	-1328	-16208	-16304	322	212	114	-1824	-4192	15904
-15232	-132	86	121	-2592	272	16656	-16058	170	326	107	-5152	-3984	15024	-16549	-203	145	67	-272	-1232	-16080	-16290	315	212	115	-1744	-4224	15920
-15201	-132	98	125	-2608	208	16592	-16052	164	327	108	-5120	-4016	15200	-16527	-207	137	66	-240	-1296	-16208	-16295	320	208	116	-1920	-4176	15920
-15221	-126	99	118	-2576	176	16720	-16067	165	322	109	-5216	-3936	15232	-16518	-199	131	64	-208	-1392	-16144	-16290	316	206	115	-1872	-4208	15888
-15221	-131	86	117	-2576	176	16640	-16060	168	319	120	-5200	-3920	15136	-16548	-204	145	71	-224	-1296	-16160	-16287	320	214	114	-1824	-4256	15792
-15218	-129	87	125	-2592	240	16688	-16038	164	330	112	-5056	-3936	15104	-16555	-219	140	69	-240	-1248	-16192	-16283	324	208	113	-1872	-4272	15984
-15230	-133	87	125	-2640	128	16784	-16031	171	321	115	-5264	-3920	15072	-16564	-205	141	63	-256	-1264	-16224	-16283	324	205	121	-1840	-4208	15888
-15225	-133	97	119	-2576	272	16640	-16072	172	325	114	-5168	-3984	15136	-16556	-205	133	71	-256	-1232	-16208	-16298	327	208	113	-1760	-4240	15920
-15234	-127	82	120	-2560	304	16656	-16075	162	322	107	-5312	-4016	15168	-16523	-209	133	66	-224	-1264	-16176	-16301	319	211	118	-1888	-4096	15920
-15225	-132	93	124	-2576	192	16640	-16051	170	326	111	-5248	-3872	15168	-16527	-214	144	70	-208	-1328	-16112	-16299	327	211	119	-1952	-4176	15808
-15238	-122	89	124	-2576	224	16640	-16064	168	316	107	-5120	-3936	15216	-16494	-214	134	70	-272	-1296	-16192	-16278	327	208	113	-1792	-4192	15904
-15247	-122	96	125	-2592	256	16640	-16059	168	314	115	-5264	-4000	15184	-16523	-207	132	68	-240	-1296	-16112	-16274	320	206	119	-1904	-4208	15936
-15238	-137	86	128	-2576	176	16496	-16078	168	326	112	-5120	-3968	15088	-16530	-211	144	62	-160	-1248	-16208	-16290	327	217	115	-1840	-4224	15840
-15220	-131	87	127	-2608	176	16656	-16061	174	325	113	-5264	-3936	15056	-16548	-206	132	69	-224	-1248	-16176	-16291	318	216	113	-1824	-4256	15856
-15220	-134	84	122	-2624	208	16720	-16063	178	321	112	-5216	-4032	15200	-16531	-209	141	67	-320	-1296	-16192	-16293	320	206	114	-1904	-4256	16064
-15228	-127	83	116	-2528	208	16672	-16075	163	328	110	-5184	-3968	15200	-16532	-211	143	70	-256	-1312	-16272	-16304	322	212	116	-1808	-4208	16000
-15254	-132	83	116	-2608	224	16640	-16056	169	322	115	-5248	-3904	15104	-16532	-205	135	64	-288	-1328	-16160	-16295	315	213	122	-1776	-4192	15840
-15241	-133	92	114	-2480	224	16656	-16060	168	326	119	-5152	-4000	15120	-16529	-213	137	66	-224	-1200	-16128	-16280	316	208	115	-1904	-4192	15920
-15219	-129	84	120	-2576	352	16640	-16047	170	335	111	-5184	-4016	15104	-16559	-213	141	68	-128	-1328	-16224	-16280	320	201	109	-1920	-4208	15952
-15228	-131	92	124	-2528	288	16496	-16055	166	319	113	-5200	-4016	15056	-16535	-207	129	68	-304	-1296	-16304	-16292	325	214	119	-1856	-4112	15984
-15205	-129	93	119	-2560	256	16656	-16074	166	329	112	-5136	-3920	15088	-16520	-213	139	62	-352	-1312	-16192	-16288	310	214	118	-1888	-4128	15952
-15217	-134	92	123	-2624	208	16656	-16061	167	321	114	-5136	-4016	15024	-16533	-214	138	64	-320	-1216	-16208	-16278	316	210	116	-1888	-4160	16000
-15245	-127	100	124	-2560	176	16640	-16054	165	318	115	-5296	-4000	15152	-16538	-209	137	67	-256	-1296	-16240	-16267	326	214	117	-1856	-4176	15888
-15221	-129	85	116	-2576	272	16656	-16062	173	320	102	-5136	-4000	15056	-16553	-205	131	56	-288	-1248	-16192	-16272	318	217	118	-1824	-4192	15920
-15206	-129	90	117	-2640	176	16688	-16075	169	314	114	-5136	-3968	15168	-16539	-206	129	63	-240	-1344	-16032	-16289	318	214	117	-1856	-4128	15824
-15226	-131	95	116	-2624	224	16640	-16048	170	328	109	-5184	-3888	15120	-16528	-211	135	70	-240	-1296	-16176	-16292	317	210	111	-1744	-4288	15840
-15218	-128	88	126	-2512	256	16672	-16064	179	320	117	-5216	-3888	15120	-16536	-209	141	66	-176	-1296	-16128	-16304	314	208	126	-1824	-4192	15888
-15205	-130	93	114	-2640	256	16576	-16058	166	318	113	-5136	-3952	15184	-16516	-207	139	65	-288	-1248	-16176	-16270	314	218	114	-1872	-4080	16000
-15222	-130	96	115	-2592	160	16736	-16072	162	319	118	-5104	-4000	15104	-16529	-211	136	64	-240	-1328	-16112	-16282	324	203	114	-1824	-4224	15904
-15219	-131	97	112	-2576	240	16672	-16060	169	331	116	-5200	-4048	15072	-16523	-204	137	65	-352	-1296	-16160	-16286	327	206	115	-1872	-4176	15920
-15216	-136	93	123	-2544	320	16576	-16059	166	332	112	-5168	-4032	15056	-16544	-208	137	62	-224	-1232	-16048	-16287	312	224	107	-1760	-4224	15824
-15215	-129	89	122	-2528	288	16640	-16050	168	313	117	-5200	-3952	15104	-16534	-214	137	64	-272	-1312	-16192	-16281	324	212	119	-1824	-4112	15984
-15241	-135	95	125	-2576	160	16656	-16054	169	321	108	-5184	-3984	15024	-16528	-202	144	70	-272	-1280	-16096	-16290	319	214	116	-1920	-4144	15904
-15228	-125	98	120	-2544	224	16656	-16073	176	329	115	-5184	-4000	15120	-16539	-206	145	72	-304	-1312	-16304	-16280	323	210	117	-1824	-4208	15872
-15239	-131	97	124	-2528	240	16656	-16054	176	325	116	-5232	-3872	15136	-16540	-211	138	66	-272	-1296	-16192	-16292	321	222	118	-1888	-4208	15872
-15232	-138	86	126	-2592	256	16688	-16076	172	321	113	-5152	-4048	15120	-16525	-203	142	74	-208	-1264	-16304	-16287	318	214	116	-1760	-4240	15952
-15230	-134	90	125	-2528	160	16656	-16058	167	332	115	-5168	-4000	15120	-16532	-211	136	63	-224	-1280	-16208	-16280	317	209	112	-1888	-4256	15888
-15229	-130	94	119	-2640	288	16640	-16070	166	329	113	-5168	-3920	15056	-16547	-206	141	64	-256	-1360	-16192	-16288	318	212	114	-1904	-4208	15952
-15245	-132	92	124	-2688	176	16560	-16068	171	319	113	-5200	-4032	15120	-16541	-206	137	63	-288	-1296	-16256	-16295	320	215	114	-1856	-4128	15808
-15215	-134	86	119	-2560	256	16528	-16045	174	312	114	-5200	-4016	15056	-16530	-203	138	63	-256	-1280	-16112	-16289	321	214	113	-1824	-4160	15968
-15238	-128	87	116	-2528	256	16592	-16055	171	317	116	-5184	-3968	14992	-16537	-218	136	67	-336	-1360	-16128	-16303	323	204	116	-1824	-4176	15920
-15242	-135	87	120	-2576	272	16640	-16056	164	320	114	-5184	-3984	15120	-16521	-204	129	74	-288	-1344	-16224	-16292	322	218	110	-1792	-4096	15984
-15245	-134	86	125	-2640	224	16672	-16077	171	325	114	-5136	-3968	15072	-16530	-217	139	68	-224	-1168	-16256	-16279	321	214	118	-1920	-4128	15936
-15223	-127	93	128	-2592	176	16656	-16062	171	326	116	-5152	-4080	15056	-16541	-214	139	60	-320	-1200	-16160	-16285	322	214	114	-1856	-4208	15808
-15217	-129	92	125	-2608	192	16640	-16069	170	327	114	-5184	-3984	15152	-16550	-214	141	70	-224	-1312	-16128	-16298	319	207	122	-1824	-4176	15904
-15220	-135	89	117	-2608	256	16656	-16045	172	330	113	-5216	-4032	15056	-16536	-206	141	67	-304	-1344	-16224	-16291	313	211	114	-1872	-4080	15904
-15217	-130	89	117	-2512	256	16560	-16059	170	325	120	-5216	-4000	15136	-16545	-207	138	63	-208	-1312	-16128	-16286	324	212	116	-1856	-4192	15872
-15231	-131	84	118	-2576	288	16720	-16075	168	333	124	-5120	-3984	15040	-16543	-205	130	61	-288	-1312	-16176	-16290	321	209	123	-1872	-4240	15808
-15235	-130	96	121	-2512	176	16560	-16055	173	322	111	-5216	-4000	15040	-16522	-206	141	58	-256	-1360	-16240	-16287	317	217	119	-1904	-4176	15808
-15243	-138	89	118	-2528	176	16704	-16057	165	320	110	-5264	-3984	15120	-16544	-205	142	70	-192	-1200	-16192	-16282	320	210	123	-1856	-4208	15808
-15212	-132	83	123	-2496	192	16656	-16067	171	321	114	-5168	-3968	15216	-16519	-206	142	67	-304	-1392	-16096	-16292	328	214	116	-1904	-4192	15808
-15225	-124	94	122	-2608	160	16720	-16076	174	317	111	-5232	-4048	14960	-16533	-212	138	70	-272	-1296	-16208	-16278	318	206	120	-1920	-4208	15936
-15222	-129	87	122	-2608	208	16576	-16070	168	321	111	-5136	-3920	15056	-16550	-212	141	67	-208	-1312	-16256	-16281	324	207	119	-1904	-4112	15888
-15212	-134	90	119	-2608	288	16544	-16069	163	326	111	-5152	-4048	15104	-16534	-211	137	78	-336	-1264	-16224	-16297	320	218	116	-1872	-4240	16064
-15244	-134	91	118	-2560	192	16656	-16050	170	320	113	-5248	-3904	15120	-16533	-214	132	68	-256	-1264	-16144	-16284	321	214	122	-1872	-4128	15968
-15233	-134	97	122	-2528	192	16672	-16046	171	334	114	-5248	-4016	15216	-16548	-209	142	65	-272	-1328	-16240	-16297	324	207	115	-1872	-4176	15776
